start
file_1.csv
File contains: 15436bytes
Sample Number,Unixtime,Temperature (C),Accel X,AccelY,Accel Z,Motor,Voltage (V)
1002,1556812476,28.31,0.00,0.00,0.00,,1.85
1003,1556812476,28.31,0.00,0.00,0.00,,1.85
1004,1556812476,28.31,0.00,0.00,0.00,,1.851005,1556812476,28.31,0.00,0.00,0.00,,1.85
1006,1556812476,28.31,0.00,0.00,0.00,,1.85
1007,1556812476,28.31,0.00,0.00,0.00,,1.85
1008,1556812476,28.31,0.00,0.00,0.00,,1.85
1009,1556812476,28.31,0.00,0.00,0.00,,1.851010,1556812476,28.31,0.00,0.00,0.00,,1.85
1011,1556812476,28.31,0.00,0.00,0.00,,1.85
1012,1556812476,28.31,0.00,0.00,0.00,,1.85
1013,1556812476,28.31,0.00,0.00,0.00,,1.85
1014,1556812476,28.31,0.00,0.00,0.00,,1.851015,1556812476,28.56,0.00,0.00,0.00,,1.85
1016,1556812476,28.56,0.00,0.00,0.00,,1.85
1017,1556812476,28.56,0.00,0.00,0.00,,1.85
1018,1556812476,28.56,0.00,0.00,0.00,,1.85
1019,1556812477,28.56,0.00,0.00,0.00,,1.851020,1556812477,28.56,0.00,0.00,0.00,,1.85
1021,1556812477,28.56,0.00,0.00,0.00,,1.85
1022,1556812477,28.31,0.00,0.00,0.00,,1.85
1023,1556812477,28.31,0.00,0.00,0.00,,1.85
1024,1556812477,28.31,0.00,0.00,0.00,,1.851025,1556812477,28.31,0.00,0.00,0.00,,1.85
1026,1556812477,28.31,0.00,0.00,0.00,,1.85
1027,1556812477,28.31,0.00,0.00,0.00,,1.85
1028,1556812477,28.31,0.00,0.00,0.00,,1.85
1029,1556812477,28.31,0.00,0.00,0.00,,1.851030,1556812477,28.31,0.00,0.00,0.00,,1.85
1031,1556812477,28.31,0.00,0.00,0.00,,1.85
1032,1556812477,28.31,0.00,0.00,0.00,,1.85
1033,1556812477,28.31,0.00,0.00,0.00,,1.85
1034,1556812477,28.31,0.00,0.00,0.00,,1.851035,1556812477,28.31,0.00,0.00,0.00,,1.85
1036,1556812477,28.31,0.00,0.00,0.00,,1.85
1037,1556812477,28.25,0.00,0.00,0.00,,1.85
1038,1556812477,28.25,0.00,0.00,0.00,,1.85
1039,1556812477,28.25,0.00,0.00,0.00,,1.851040,1556812477,28.25,0.00,0.00,0.00,,1.85
1041,1556812477,28.25,0.00,0.00,0.00,,1.85
1042,1556812477,28.25,0.00,0.00,0.00,,1.85
1043,1556812477,28.25,0.00,0.00,0.00,,1.85
1044,1556812477,28.25,0.00,0.00,0.00,,1.851045,1556812477,28.25,0.00,0.00,0.00,,1.85
1046,1556812477,28.25,0.00,0.00,0.00,,1.85
1047,1556812478,28.25,0.00,0.00,0.00,,1.85
1048,1556812478,28.25,0.00,0.00,0.00,,1.85
1049,1556812478,28.25,0.00,0.00,0.00,,1.851050,1556812478,28.25,0.00,0.00,0.00,,1.85
1051,1556812478,28.25,0.00,0.00,0.00,,1.85
1052,1556812478,28.25,0.00,0.00,0.00,,1.85
1053,1556812478,28.25,0.00,0.00,0.00,,1.85
1054,1556812478,28.25,0.00,0.00,0.00,,1.851055,1556812478,28.25,0.00,0.00,0.00,,1.85
1056,1556812478,28.25,0.00,0.00,0.00,,1.85
1057,1556812478,28.25,0.00,0.00,0.00,,1.85
1058,1556812478,28.25,0.00,0.00,0.00,,1.85
1059,1556812478,28.31,0.00,0.00,0.00,,1.851060,1556812478,28.31,0.00,0.00,0.00,,1.85
1061,1556812478,28.31,0.00,0.00,0.00,,1.85
1062,1556812478,28.31,0.00,0.00,0.00,,1.85
1063,1556812478,28.31,0.00,0.00,0.00,,1.85
1064,1556812478,28.31,0.00,0.00,0.00,,1.851065,1556812478,28.31,0.00,0.00,0.00,,1.85
1066,1556812478,28.31,0.00,0.00,0.00,,1.85
1067,1556812478,28.31,0.00,0.00,0.00,,1.85
1068,1556812478,28.31,0.00,0.00,0.00,,1.85
1069,1556812478,28.31,0.00,0.00,0.00,,1.851070,1556812478,28.31,0.00,0.00,0.00,,1.85
1071,1556812478,28.31,0.00,0.00,0.00,,1.85
1072,1556812478,28.31,0.00,0.00,0.00,,1.85
1073,1556812478,28.25,0.00,0.00,0.00,,1.85
1074,1556812478,28.25,0.00,0.00,0.00,,1.851075,1556812478,28.25,0.00,0.00,0.00,,1.85
1076,1556812479,28.25,0.00,0.00,0.00,,1.85
1077,1556812479,28.25,0.00,0.00,0.00,,1.85
1078,1556812479,28.25,0.00,0.00,0.00,,1.85
1079,1556812479,28.25,0.00,0.00,0.00,,1.851080,1556812479,28.31,0.00,0.00,0.00,,1.85
1081,1556812479,28.31,0.00,0.00,0.00,,1.85
1082,1556812479,28.31,0.00,0.00,0.00,,1.85
1083,1556812479,28.31,0.00,0.00,0.00,,1.85
1084,1556812479,28.31,0.00,0.00,0.00,,1.851085,1556812479,28.31,0.00,0.00,0.00,,1.85
1086,1556812479,28.31,0.00,0.00,0.00,,1.85
1087,1556812479,28.31,0.00,0.00,0.00,,1.85
1088,1556812479,28.31,0.00,0.00,0.00,,1.85
1089,1556812479,28.31,0.00,0.00,0.00,,1.851090,1556812479,28.31,0.00,0.00,0.00,,1.85
1091,1556812479,28.31,0.00,0.00,0.00,,1.85
1092,1556812479,28.31,0.00,0.00,0.00,,1.85
1093,1556812479,28.31,0.00,0.00,0.00,,1.85
1094,1556812479,28.31,0.00,0.00,0.00,,1.851095,1556812479,28.37,0.00,0.00,0.00,,1.85
1096,1556812479,28.37,0.00,0.00,0.00,,1.85
1097,1556812479,28.37,0.00,0.00,0.00,,1.85
1098,1556812479,28.37,0.00,0.00,0.00,,1.85
1099,1556812479,28.37,0.00,0.00,0.00,,1.851100,1556812479,28.37,0.00,0.00,0.00,,1.85
1101,1556812479,28.37,0.00,0.00,0.00,,1.85
1102,1556812479,28.31,0.00,0.00,0.00,,1.85
1103,1556812479,28.31,0.00,0.00,0.00,,1.85
1104,1556812480,28.31,0.00,0.00,0.00,,1.851105,1556812480,28.31,0.00,0.00,0.00,,1.85
1106,1556812480,28.31,0.00,0.00,0.00,,1.85
1107,1556812480,28.31,0.00,0.00,0.00,,1.85
1108,1556812480,28.31,0.00,0.00,0.00,,1.85
1109,1556812480,28.31,0.00,0.00,0.00,,1.851110,1556812480,28.31,0.00,0.00,0.00,,1.85
1111,1556812480,28.31,0.00,0.00,0.00,,1.85
1112,1556812480,28.31,0.00,0.00,0.00,,1.85
1113,1556812480,28.31,0.00,0.00,0.00,,1.85
1114,1556812480,28.31,0.00,0.00,0.00,,1.851115,1556812480,28.31,0.00,0.00,0.00,,1.85
1116,1556812480,28.31,0.00,0.00,0.00,,1.85
1117,1556812480,28.37,0.00,0.00,0.00,,1.85
1118,1556812480,28.37,0.00,0.00,0.00,,1.85
1119,1556812480,28.37,0.00,0.00,0.00,,1.851120,1556812480,28.37,0.00,0.00,0.00,,1.85
1121,1556812480,28.37,0.00,0.00,0.00,,1.85
1122,1556812480,28.37,0.00,0.00,0.00,,1.85
1123,1556812480,28.37,0.00,0.00,0.00,,1.85
1124,1556812480,28.37,0.00,0.00,0.00,,1.851125,1556812480,28.37,0.00,0.00,0.00,,1.85
1126,1556812480,28.37,0.00,0.00,0.00,,1.85
1127,1556812480,28.37,0.00,0.00,0.00,,1.85
1128,1556812480,28.37,0.00,0.00,0.00,,1.85
1129,1556812480,28.37,0.00,0.00,0.00,,1.851130,1556812480,28.37,0.00,0.00,0.00,,1.85
1131,1556812480,28.37,0.00,0.00,0.00,,1.85
1132,1556812480,28.37,0.00,0.00,0.00,,1.85
1133,1556812481,28.37,0.00,0.00,0.00,,1.85
1134,1556812481,28.37,0.00,0.00,0.00,,1.851135,1556812481,28.37,0.00,0.00,0.00,,1.85
1136,1556812481,28.37,0.00,0.00,0.00,,1.85
1137,1556812481,28.37,0.00,0.00,0.00,,1.85
1138,1556812481,28.37,0.00,0.00,0.00,,1.85
1139,1556812481,28.37,0.00,0.00,0.00,,1.851140,1556812481,28.37,0.00,0.00,0.00,,1.85
1141,1556812481,28.37,0.00,0.00,0.00,,1.85
1142,1556812481,28.37,0.00,0.00,0.00,,1.85
1143,1556812481,28.37,0.00,0.00,0.00,,1.85
1144,1556812481,28.37,0.00,0.00,0.00,,1.851145,1556812481,28.37,0.00,0.00,0.00,,1.85
1146,1556812481,28.37,0.00,0.00,0.00,,1.85
1147,1556812481,28.37,0.00,0.00,0.00,,1.85
1148,1556812481,28.37,0.00,0.00,0.00,,1.85
1149,1556812481,28.37,0.00,0.00,0.00,,1.851150,1556812481,28.37,0.00,0.00,0.00,,1.85
1151,1556812481,28.37,0.00,0.00,0.00,,1.85
1152,1556812481,28.37,0.00,0.00,0.00,,1.85
1153,1556812481,28.37,0.00,0.00,0.00,,1.85
1154,1556812481,28.37,0.00,0.00,0.00,,1.851155,1556812481,28.37,0.00,0.00,0.00,,1.85
1156,1556812481,28.37,0.00,0.00,0.00,,1.85
1157,1556812481,28.37,0.00,0.00,0.00,,1.85
1158,1556812481,28.37,0.00,0.00,0.00,,1.85
1159,1556812481,28.37,0.00,0.00,0.00,,1.851160,1556812481,28.31,0.00,0.00,0.00,,1.85
1161,1556812482,28.31,0.00,0.00,0.00,,1.85
1162,1556812482,28.31,0.00,0.00,0.00,,1.85
1163,1556812482,28.31,0.00,0.00,0.00,,1.85
1164,1556812482,28.31,0.00,0.00,0.00,,1.851165,1556812482,28.31,0.00,0.00,0.00,,1.85
1166,1556812482,28.31,0.00,0.00,0.00,,1.85
1167,1556812482,28.31,0.00,0.00,0.00,,1.85
1168,1556812482,28.37,0.00,0.00,0.00,,1.85
1169,1556812482,28.37,0.00,0.00,0.00,,1.851170,1556812482,28.37,0.00,0.00,0.00,,1.85
1171,1556812482,28.37,0.00,0.00,0.00,,1.85
1172,1556812482,28.37,0.00,0.00,0.00,,1.85
1173,1556812482,28.37,0.00,0.00,0.00,,1.85
1174,1556812482,28.37,0.00,0.00,0.00,,1.851175,1556812482,28.37,0.00,0.00,0.00,,1.85
1176,1556812482,28.37,0.00,0.00,0.00,,1.85
1177,1556812482,28.37,0.00,0.00,0.00,,1.85
1178,1556812482,28.37,0.00,0.00,0.00,,1.85
1179,1556812482,28.37,0.00,0.00,0.00,,1.851180,1556812482,28.37,0.00,0.00,0.00,,1.85
1181,1556812482,28.37,0.00,0.00,0.00,,1.85
1182,1556812482,28.37,0.00,0.00,0.00,,1.85
1183,1556812482,28.37,0.00,0.00,0.00,,1.85
1184,1556812482,28.37,0.00,0.00,0.00,,1.851185,1556812482,28.37,0.00,0.00,0.00,,1.85
1186,1556812482,28.37,0.00,0.00,0.00,,1.85
1187,1556812482,28.37,0.00,0.00,0.00,,1.85
1188,1556812482,28.37,0.00,0.00,0.00,,1.85
1189,1556812482,28.44,0.00,0.00,0.00,,1.851190,1556812483,28.44,0.00,0.00,0.00,,1.85
1191,1556812483,28.44,0.00,0.00,0.00,,1.85
1192,1556812483,28.44,0.00,0.00,0.00,,1.85
1193,1556812483,28.44,0.00,0.00,0.00,,1.85
1194,1556812483,28.44,0.00,0.00,0.00,,1.851195,1556812483,28.44,0.00,0.00,0.00,,1.85
1196,1556812483,28.44,0.00,0.00,0.00,,1.85
1197,1556812483,28.37,0.00,0.00,0.00,,1.85
1198,1556812483,28.37,0.00,0.00,0.00,,1.85
1199,1556812483,28.37,0.00,0.00,0.00,,1.851200,1556812483,28.37,0.00,0.00,0.00,,1.85
1201,1556812483,28.37,0.00,0.00,0.00,,1.85
1202,1556812483,28.37,0.00,0.00,0.00,,1.85
1203,1556812483,28.37,0.00,0.00,0.00,,1.85
1204,1556812483,28.37,0.00,0.00,0.00,,1.851205,1556812483,28.37,0.00,0.00,0.00,,1.85
1206,1556812483,28.37,0.00,0.00,0.00,,1.85
1207,1556812483,28.37,0.00,0.00,0.00,,1.85
1208,1556812483,28.37,0.00,0.00,0.00,,1.85
1209,1556812483,28.37,0.00,0.00,0.00,,1.851210,1556812483,28.37,0.00,0.00,0.00,,1.85
1211,1556812483,28.37,0.00,0.00,0.00,,1.85
1212,1556812483,28.37,0.00,0.00,0.00,,1.85
1213,1556812483,28.37,0.00,0.00,0.00,,1.85
1214,1556812483,28.37,0.00,0.00,0.00,,1.851215,1556812483,28.37,0.00,0.00,0.00,,1.85
1216,1556812483,28.37,0.00,0.00,0.00,,1.85
1217,1556812483,28.37,0.00,0.00,0.00,,1.85
1218,1556812484,28.37,0.00,0.00,0.00,,1.85
1219,1556812484,28.37,0.00,0.00,0.00,,1.851220,1556812484,28.37,0.00,0.00,0.00,,1.85
1221,1556812484,28.37,0.00,0.00,0.00,,1.85
1222,1556812484,28.37,0.00,0.00,0.00,,1.85
1223,1556812484,28.37,0.00,0.00,0.00,,1.85
1224,1556812484,28.37,0.00,0.00,0.00,,1.851225,1556812484,28.37,0.00,0.00,0.00,,1.85
1226,1556812484,28.37,0.00,0.00,0.00,,1.85
1227,1556812484,28.37,0.00,0.00,0.00,,1.85
1228,1556812484,28.37,0.00,0.00,0.00,,1.85
1229,1556812484,28.37,0.00,0.00,0.00,,1.851230,1556812484,28.37,0.00,0.00,0.00,,1.85
1231,1556812484,28.37,0.00,0.00,0.00,,1.85
1232,1556812484,28.37,0.00,0.00,0.00,,1.85
1233,1556812484,28.37,0.00,0.00,0.00,,1.85
1234,1556812484,28.37,0.00,0.00,0.00,,1.851235,1556812484,28.37,0.00,0.00,0.00,,1.85
1236,1556812484,28.37,0.00,0.00,0.00,,1.85
1237,1556812484,28.37,0.00,0.00,0.00,,1.85
1238,1556812484,28.37,0.00,0.00,0.00,,1.85
1239,1556812484,28.37,0.00,0.00,0.00,,1.851240,1556812484,28.44,0.00,0.00,0.00,,1.85
1241,1556812484,28.44,0.00,0.00,0.00,,1.85
1242,1556812484,28.44,0.00,0.00,0.00,,1.85
1243,1556812484,28.44,0.00,0.00,0.00,,1.85
1244,1556812484,28.44,0.00,0.00,0.00,,1.851245,1556812484,28.44,0.00,0.00,0.00,,1.85
1246,1556812484,28.44,0.00,0.00,0.00,,1.85
1247,1556812485,28.44,0.00,0.00,0.00,,1.85
1248,1556812485,28.44,0.00,0.00,0.00,,1.85
1249,1556812485,28.44,0.00,0.00,0.00,,1.851250,1556812485,28.44,0.00,0.00,0.00,,1.85
1251,1556812485,28.44,0.00,0.00,0.00,,1.85
1252,1556812485,28.44,0.00,0.00,0.00,,1.85
1253,1556812485,28.44,0.00,0.00,0.00,,1.85
1254,1556812485,28.44,0.00,0.00,0.00,,1.851255,1556812485,28.44,0.00,0.00,0.00,,1.85
1256,1556812485,28.44,0.00,0.00,0.00,,1.85
1257,1556812485,28.44,0.00,0.00,0.00,,1.85
1258,1556812485,28.44,0.00,0.00,0.00,,1.85
1259,1556812485,28.44,0.00,0.00,0.00,,1.851260,1556812485,28.44,0.00,0.00,0.00,,1.85
1261,1556812485,28.44,0.00,0.00,0.00,,1.85
1262,1556812485,28.37,0.00,0.00,0.00,,1.85
1263,1556812485,28.37,0.00,0.00,0.00,,1.85
1264,1556812485,28.37,0.00,0.00,0.00,,1.851265,1556812485,28.37,0.00,0.00,0.00,,1.85
1266,1556812485,28.37,0.00,0.00,0.00,,1.85
1267,1556812485,28.37,0.00,0.00,0.00,,1.85
1268,1556812485,28.37,0.00,0.00,0.00,,1.85
1269,1556812485,28.44,0.00,0.00,0.00,,1.851270,1556812485,28.44,0.00,0.00,0.00,,1.85
1271,1556812485,28.44,0.00,0.00,0.00,,1.85
1272,1556812485,28.44,0.00,0.00,0.00,,1.85
1273,1556812485,28.44,0.00,0.00,0.00,,1.85
1274,1556812485,28.44,0.00,0.00,0.00,,1.851275,1556812486,28.44,0.00,0.00,0.00,,1.85
1276,1556812486,28.37,0.00,0.00,0.00,,1.85
1277,1556812486,28.37,0.00,0.00,0.00,,1.85
1278,1556812486,28.37,0.00,0.00,0.00,,1.85
1279,1556812486,28.37,0.00,0.00,0.00,,1.851280,1556812486,28.37,0.00,0.00,0.00,,1.85
1281,1556812486,28.37,0.00,0.00,0.00,,1.85
1282,1556812486,28.37,0.00,0.00,0.00,,1.85
1283,1556812486,28.37,0.00,0.00,0.00,,1.85
1284,1556812486,28.37,0.00,0.00,0.00,,1.851285,1556812486,28.37,0.00,0.00,0.00,,1.85
1286,1556812486,28.37,0.00,0.00,0.00,,1.85
1287,1556812486,28.37,0.00,0.00,0.00,,1.85
1288,1556812486,28.37,0.00,0.00,0.00,,1.85
1289,1556812486,28.37,0.00,0.00,0.00,,1.851290,1556812486,28.37,0.00,0.00,0.00,,1.85
1291,1556812486,28.44,0.00,0.00,0.00,,1.85
1292,1556812486,28.44,0.00,0.00,0.00,,1.85
1293,1556812486,28.44,0.00,0.00,0.00,,1.85
1294,1556812486,28.44,0.00,0.00,0.00,,1.851295,1556812486,28.44,0.00,0.00,0.00,,1.85
1296,1556812486,28.44,0.00,0.00,0.00,,1.85
1297,1556812486,28.44,0.00,0.00,0.00,,1.85
1298,1556812486,28.37,0.00,0.00,0.00,,1.85
1299,1556812486,28.37,0.00,0.00,0.00,,1.851300,1556812486,28.37,0.00,0.00,0.00,,1.85
1301,1556812486,28.37,0.00,0.00,0.00,,1.85
1302,1556812486,28.37,0.00,0.00,0.00,,1.85
1303,1556812486,28.37,0.00,0.00,0.00,,1.85
1304,1556812487,28.37,0.00,0.00,0.00,,1.851305,1556812487,28.37,0.00,0.00,0.00,,1.85
1306,1556812487,28.37,0.00,0.00,0.00,,1.85
1307,1556812487,28.37,0.00,0.00,0.00,,1.85
1308,1556812487,28.37,0.00,0.00,0.00,,1.85
1309,1556812487,28.37,0.00,0.00,0.00,,1.851310,1556812487,28.37,0.00,0.00,0.00,,1.85
1311,1556812487,28.37,0.00,0.00,0.00,,1.85
1312,1556812487,28.37,0.00,0.00,0.00,,1.85
1313,1556812487,28.44,0.00,0.00,0.00,,1.85
1314,1556812487,28.44,0.00,0.00,0.00,,1.851315,1556812487,28.44,0.00,0.00,0.00,,1.85
1316,1556812487,28.44,0.00,0.00,0.00,,1.85
1317,1556812487,28.44,0.00,0.00,0.00,,1.85
1318,1556812487,28.44,0.00,0.00,0.00,,1.85
1319,1556812487,28.44,0.00,0.00,0.00,,1.851320,1556812487,28.44,0.00,0.00,0.00,,1.85
1321,1556812487,28.44,0.00,0.00,0.00,,1.85
1322,1556812487,28.44,0.00,0.00,0.00,,1.85
1323,1556812487,28.44,0.00,0.00,0.00,,1.85
1324,1556812487,28.44,0.00,0.00,0.00,,1.851325,1556812487,28.44,0.00,0.00,0.00,,1.85
1326,1556812487,28.44,0.00,0.00,0.00,,1.85
1327,1556812487,28.44,0.00,0.00,0.00,,1.85
1328,1556812487,28.44,0.00,0.00,0.00,,1.85
1329,1556812487,28.44,0.00,0.00,0.00,,1.851330,1556812487,28.44,0.00,0.00,0.00,,1.85
1331,1556812487,28.44,0.00,0.00,0.00,,1.85
1332,1556812488,28.44,0.00,0.00,0.00,,1.85
1333,1556812488,28.44,0.00,0.00,0.00,,1.85
1334,1556812488,28.44,0.00,0.00,0.00,,1.851335,1556812488,28.37,0.00,0.00,0.00,,1.85
1336,1556812488,28.37,0.00,0.00,0.00,,1.85
1337,1556812488,28.37,0.00,0.00,0.00,,1.85
1338,1556812488,28.37,0.00,0.00,0.00,,1.85
1339,1556812488,28.37,0.00,0.00,0.00,,1.851340,1556812488,28.37,0.00,0.00,0.00,,1.85
1341,1556812488,28.37,0.00,0.00,0.00,,1.85
1342,1556812488,28.44,0.00,0.00,0.00,,1.85
1343,1556812488,28.44,0.00,0.00,0.00,,1.85
1344,1556812488,28.44,0.00,0.00,0.00,,1.851345,1556812488,28.44,0.00,0.00,0.00,,1.85
1346,1556812488,28.44,0.00,0.00,0.00,,1.85
1347,1556812488,28.44,0.00,0.00,0.00,,1.85
1348,1556812488,28.44,0.00,0.00,0.00,,1.85
1349,1556812488,28.44,0.00,0.00,0.00,,1.851350,1556812488,28.44,0.00,0.00,0.00,,1.85file_2.csv
Filecontains: 15436 bytes
Sample Number,Unixtime,Temperature (C),Accel X,Accel Y,Accel Z,Motor,Voltage(V)
1002,1556812476,28.31,0.00,0.00,0.00,,1.85
1003,1556812476,28.31,0.00,0.00,0.00,,1.85
1004,1556812476,28.31,0.00,0.00,0.00,,1.85
1005,1556812476,28.31,0.00,0.00,0.00,,1.851006,1556812476,28.31,0.00,0.00,0.00,,1.85
1007,1556812476,28.31,0.00,0.00,0.00,,1.85
1008,1556812476,28.31,0.00,0.00,0.00,,1.85
1009,1556812476,28.31,0.00,0.00,0.00,,1.85
1010,1556812476,28.31,0.00,0.00,0.00,,1.851011,1556812476,28.31,0.00,0.00,0.00,,1.85
1012,1556812476,28.31,0.00,0.00,0.00,,1.85
1013,1556812476,28.31,0.00,0.00,0.00,,1.85
1014,1556812476,28.31,0.00,0.00,0.00,,1.85
1015,1556812476,28.56,0.00,0.00,0.00,,1.851016,1556812476,28.56,0.00,0.00,0.00,,1.85
1017,1556812476,28.56,0.00,0.00,0.00,,1.85
1018,1556812476,28.56,0.00,0.00,0.00,,1.85
1019,1556812477,28.56,0.00,0.00,0.00,,1.85
1020,1556812477,28.56,0.00,0.00,0.00,,1.851021,1556812477,28.56,0.00,0.00,0.00,,1.85
1022,1556812477,28.31,0.00,0.00,0.00,,1.85
1023,1556812477,28.31,0.00,0.00,0.00,,1.85
1024,1556812477,28.31,0.00,0.00,0.00,,1.85
1025,1556812477,28.31,0.00,0.00,0.00,,1.851026,1556812477,28.31,0.00,0.00,0.00,,1.85
1027,1556812477,28.31,0.00,0.00,0.00,,1.85
1028,1556812477,28.31,0.00,0.00,0.00,,1.85
1029,1556812477,28.31,0.00,0.00,0.00,,1.85
1030,1556812477,28.31,0.00,0.00,0.00,,1.851031,1556812477,28.31,0.00,0.00,0.00,,1.85
1032,1556812477,28.31,0.00,0.00,0.00,,1.85
1033,1556812477,28.31,0.00,0.00,0.00,,1.85
1034,1556812477,28.31,0.00,0.00,0.00,,1.85
1035,1556812477,28.31,0.00,0.00,0.00,,1.851036,1556812477,28.31,0.00,0.00,0.00,,1.85
1037,1556812477,28.25,0.00,0.00,0.00,,1.85
1038,1556812477,28.25,0.00,0.00,0.00,,1.85
1039,1556812477,28.25,0.00,0.00,0.00,,1.85
1040,1556812477,28.25,0.00,0.00,0.00,,1.851041,1556812477,28.25,0.00,0.00,0.00,,1.85
1042,1556812477,28.25,0.00,0.00,0.00,,1.85
1043,1556812477,28.25,0.00,0.00,0.00,,1.85
1044,1556812477,28.25,0.00,0.00,0.00,,1.85
1045,1556812477,28.25,0.00,0.00,0.00,,1.851046,1556812477,28.25,0.00,0.00,0.00,,1.85
1047,1556812478,28.25,0.00,0.00,0.00,,1.85
1048,1556812478,28.25,0.00,0.00,0.00,,1.85
1049,1556812478,28.25,0.00,0.00,0.00,,1.85
1050,1556812478,28.25,0.00,0.00,0.00,,1.851051,1556812478,28.25,0.00,0.00,0.00,,1.85
1052,1556812478,28.25,0.00,0.00,0.00,,1.85
1053,1556812478,28.25,0.00,0.00,0.00,,1.85
1054,1556812478,28.25,0.00,0.00,0.00,,1.85
1055,1556812478,28.25,0.00,0.00,0.00,,1.851056,1556812478,28.25,0.00,0.00,0.00,,1.85
1057,1556812478,28.25,0.00,0.00,0.00,,1.85
1058,1556812478,28.25,0.00,0.00,0.00,,1.85
1059,1556812478,28.31,0.00,0.00,0.00,,1.85
1060,1556812478,28.31,0.00,0.00,0.00,,1.851061,1556812478,28.31,0.00,0.00,0.00,,1.85
1062,1556812478,28.31,0.00,0.00,0.00,,1.85
1063,1556812478,28.31,0.00,0.00,0.00,,1.85
1064,1556812478,28.31,0.00,0.00,0.00,,1.85
1065,1556812478,28.31,0.00,0.00,0.00,,1.851066,1556812478,28.31,0.00,0.00,0.00,,1.85
1067,1556812478,28.31,0.00,0.00,0.00,,1.85
1068,1556812478,28.31,0.00,0.00,0.00,,1.85
1069,1556812478,28.31,0.00,0.00,0.00,,1.85
1070,1556812478,28.31,0.00,0.00,0.00,,1.851071,1556812478,28.31,0.00,0.00,0.00,,1.85
1072,1556812478,28.31,0.00,0.00,0.00,,1.85
1073,1556812478,28.25,0.00,0.00,0.00,,1.85
1074,1556812478,28.25,0.00,0.00,0.00,,1.85
1075,1556812478,28.25,0.00,0.00,0.00,,1.851076,1556812479,28.25,0.00,0.00,0.00,,1.85
1077,1556812479,28.25,0.00,0.00,0.00,,1.85
1078,1556812479,28.25,0.00,0.00,0.00,,1.85
1079,1556812479,28.25,0.00,0.00,0.00,,1.85
1080,1556812479,28.31,0.00,0.00,0.00,,1.851081,1556812479,28.31,0.00,0.00,0.00,,1.85
1082,1556812479,28.31,0.00,0.00,0.00,,1.85
1083,1556812479,28.31,0.00,0.00,0.00,,1.85
1084,1556812479,28.31,0.00,0.00,0.00,,1.85
1085,1556812479,28.31,0.00,0.00,0.00,,1.851086,1556812479,28.31,0.00,0.00,0.00,,1.85
1087,1556812479,28.31,0.00,0.00,0.00,,1.85
1088,1556812479,28.31,0.00,0.00,0.00,,1.85
1089,1556812479,28.31,0.00,0.00,0.00,,1.85
1090,1556812479,28.31,0.00,0.00,0.00,,1.851091,1556812479,28.31,0.00,0.00,0.00,,1.85
1092,1556812479,28.31,0.00,0.00,0.00,,1.85
1093,1556812479,28.31,0.00,0.00,0.00,,1.85
1094,1556812479,28.31,0.00,0.00,0.00,,1.85
1095,1556812479,28.37,0.00,0.00,0.00,,1.851096,1556812479,28.37,0.00,0.00,0.00,,1.85
1097,1556812479,28.37,0.00,0.00,0.00,,1.85
1098,1556812479,28.37,0.00,0.00,0.00,,1.85
1099,1556812479,28.37,0.00,0.00,0.00,,1.85
1100,1556812479,28.37,0.00,0.00,0.00,,1.851101,1556812479,28.37,0.00,0.00,0.00,,1.85
1102,1556812479,28.31,0.00,0.00,0.00,,1.85
1103,1556812479,28.31,0.00,0.00,0.00,,1.85
1104,1556812480,28.31,0.00,0.00,0.00,,1.85
1105,1556812480,28.31,0.00,0.00,0.00,,1.851106,1556812480,28.31,0.00,0.00,0.00,,1.85
1107,1556812480,28.31,0.00,0.00,0.00,,1.85
1108,1556812480,28.31,0.00,0.00,0.00,,1.85
1109,1556812480,28.31,0.00,0.00,0.00,,1.85
1110,1556812480,28.31,0.00,0.00,0.00,,1.851111,1556812480,28.31,0.00,0.00,0.00,,1.85
1112,1556812480,28.31,0.00,0.00,0.00,,1.85
1113,1556812480,28.31,0.00,0.00,0.00,,1.85
1114,1556812480,28.31,0.00,0.00,0.00,,1.85
1115,1556812480,28.31,0.00,0.00,0.00,,1.851116,1556812480,28.31,0.00,0.00,0.00,,1.85
1117,1556812480,28.37,0.00,0.00,0.00,,1.85
1118,1556812480,28.37,0.00,0.00,0.00,,1.85
1119,1556812480,28.37,0.00,0.00,0.00,,1.85
1120,1556812480,28.37,0.00,0.00,0.00,,1.851121,1556812480,28.37,0.00,0.00,0.00,,1.85
1122,1556812480,28.37,0.00,0.00,0.00,,1.85
1123,1556812480,28.37,0.00,0.00,0.00,,1.85
1124,1556812480,28.37,0.00,0.00,0.00,,1.85
1125,1556812480,28.37,0.00,0.00,0.00,,1.851126,1556812480,28.37,0.00,0.00,0.00,,1.85
1127,1556812480,28.37,0.00,0.00,0.00,,1.85
1128,1556812480,28.37,0.00,0.00,0.00,,1.85
1129,1556812480,28.37,0.00,0.00,0.00,,1.85
1130,1556812480,28.37,0.00,0.00,0.00,,1.851131,1556812480,28.37,0.00,0.00,0.00,,1.85
1132,1556812480,28.37,0.00,0.00,0.00,,1.85
1133,1556812481,28.37,0.00,0.00,0.00,,1.85
1134,1556812481,28.37,0.00,0.00,0.00,,1.85
1135,1556812481,28.37,0.00,0.00,0.00,,1.851136,1556812481,28.37,0.00,0.00,0.00,,1.85
1137,1556812481,28.37,0.00,0.00,0.00,,1.85
1138,1556812481,28.37,0.00,0.00,0.00,,1.85
1139,1556812481,28.37,0.00,0.00,0.00,,1.85
1140,1556812481,28.37,0.00,0.00,0.00,,1.851141,1556812481,28.37,0.00,0.00,0.00,,1.85
1142,1556812481,28.37,0.00,0.00,0.00,,1.85
1143,1556812481,28.37,0.00,0.00,0.00,,1.85
1144,1556812481,28.37,0.00,0.00,0.00,,1.85
1145,1556812481,28.37,0.00,0.00,0.00,,1.851146,1556812481,28.37,0.00,0.00,0.00,,1.85
1147,1556812481,28.37,0.00,0.00,0.00,,1.85
1148,1556812481,28.37,0.00,0.00,0.00,,1.85
1149,1556812481,28.37,0.00,0.00,0.00,,1.85
1150,1556812481,28.37,0.00,0.00,0.00,,1.851151,1556812481,28.37,0.00,0.00,0.00,,1.85
1152,1556812481,28.37,0.00,0.00,0.00,,1.85
1153,1556812481,28.37,0.00,0.00,0.00,,1.85
1154,1556812481,28.37,0.00,0.00,0.00,,1.85
1155,1556812481,28.37,0.00,0.00,0.00,,1.851156,1556812481,28.37,0.00,0.00,0.00,,1.85
1157,1556812481,28.37,0.00,0.00,0.00,,1.85
1158,1556812481,28.37,0.00,0.00,0.00,,1.85
1159,1556812481,28.37,0.00,0.00,0.00,,1.85
1160,1556812481,28.31,0.00,0.00,0.00,,1.851161,1556812482,28.31,0.00,0.00,0.00,,1.85
1162,1556812482,28.31,0.00,0.00,0.00,,1.85
1163,1556812482,28.31,0.00,0.00,0.00,,1.85
1164,1556812482,28.31,0.00,0.00,0.00,,1.85
1165,1556812482,28.31,0.00,0.00,0.00,,1.851166,1556812482,28.31,0.00,0.00,0.00,,1.85
1167,1556812482,28.31,0.00,0.00,0.00,,1.85
1168,1556812482,28.37,0.00,0.00,0.00,,1.85
1169,1556812482,28.37,0.00,0.00,0.00,,1.85
1170,1556812482,28.37,0.00,0.00,0.00,,1.851171,1556812482,28.37,0.00,0.00,0.00,,1.85
1172,1556812482,28.37,0.00,0.00,0.00,,1.85
1173,1556812482,28.37,0.00,0.00,0.00,,1.85
1174,1556812482,28.37,0.00,0.00,0.00,,1.85
1175,1556812482,28.37,0.00,0.00,0.00,,1.851176,1556812482,28.37,0.00,0.00,0.00,,1.85
1177,1556812482,28.37,0.00,0.00,0.00,,1.85
1178,1556812482,28.37,0.00,0.00,0.00,,1.85
1179,1556812482,28.37,0.00,0.00,0.00,,1.85
1180,1556812482,28.37,0.00,0.00,0.00,,1.851181,1556812482,28.37,0.00,0.00,0.00,,1.85
1182,1556812482,28.37,0.00,0.00,0.00,,1.85
1183,1556812482,28.37,0.00,0.00,0.00,,1.85
1184,1556812482,28.37,0.00,0.00,0.00,,1.85
1185,1556812482,28.37,0.00,0.00,0.00,,1.851186,1556812482,28.37,0.00,0.00,0.00,,1.85
1187,1556812482,28.37,0.00,0.00,0.00,,1.85
1188,1556812482,28.37,0.00,0.00,0.00,,1.85
1189,1556812482,28.44,0.00,0.00,0.00,,1.85
1190,1556812483,28.44,0.00,0.00,0.00,,1.851191,1556812483,28.44,0.00,0.00,0.00,,1.85
1192,1556812483,28.44,0.00,0.00,0.00,,1.85
1193,1556812483,28.44,0.00,0.00,0.00,,1.85
1194,1556812483,28.44,0.00,0.00,0.00,,1.85
1195,1556812483,28.44,0.00,0.00,0.00,,1.851196,1556812483,28.44,0.00,0.00,0.00,,1.85
1197,1556812483,28.37,0.00,0.00,0.00,,1.85
1198,1556812483,28.37,0.00,0.00,0.00,,1.85
1199,1556812483,28.37,0.00,0.00,0.00,,1.85
1200,1556812483,28.37,0.00,0.00,0.00,,1.851201,1556812483,28.37,0.00,0.00,0.00,,1.85
1202,1556812483,28.37,0.00,0.00,0.00,,1.85
1203,1556812483,28.37,0.00,0.00,0.00,,1.85
1204,1556812483,28.37,0.00,0.00,0.00,,1.85
1205,1556812483,28.37,0.00,0.00,0.00,,1.851206,1556812483,28.37,0.00,0.00,0.00,,1.85
1207,1556812483,28.37,0.00,0.00,0.00,,1.85
1208,1556812483,28.37,0.00,0.00,0.00,,1.85
1209,1556812483,28.37,0.00,0.00,0.00,,1.85
1210,1556812483,28.37,0.00,0.00,0.00,,1.851211,1556812483,28.37,0.00,0.00,0.00,,1.85
1212,1556812483,28.37,0.00,0.00,0.00,,1.85
1213,1556812483,28.37,0.00,0.00,0.00,,1.85
1214,1556812483,28.37,0.00,0.00,0.00,,1.85
1215,1556812483,28.37,0.00,0.00,0.00,,1.851216,1556812483,28.37,0.00,0.00,0.00,,1.85
1217,1556812483,28.37,0.00,0.00,0.00,,1.85
1218,1556812484,28.37,0.00,0.00,0.00,,1.85
1219,1556812484,28.37,0.00,0.00,0.00,,1.85
1220,1556812484,28.37,0.00,0.00,0.00,,1.851221,1556812484,28.37,0.00,0.00,0.00,,1.85
1222,1556812484,28.37,0.00,0.00,0.00,,1.85
1223,1556812484,28.37,0.00,0.00,0.00,,1.85
1224,1556812484,28.37,0.00,0.00,0.00,,1.85
1225,1556812484,28.37,0.00,0.00,0.00,,1.851226,1556812484,28.37,0.00,0.00,0.00,,1.85
1227,1556812484,28.37,0.00,0.00,0.00,,1.85
1228,1556812484,28.37,0.00,0.00,0.00,,1.85
1229,1556812484,28.37,0.00,0.00,0.00,,1.85
1230,1556812484,28.37,0.00,0.00,0.00,,1.851231,1556812484,28.37,0.00,0.00,0.00,,1.85
1232,1556812484,28.37,0.00,0.00,0.00,,1.85
1233,1556812484,28.37,0.00,0.00,0.00,,1.85
1234,1556812484,28.37,0.00,0.00,0.00,,1.85
1235,1556812484,28.37,0.00,0.00,0.00,,1.851236,1556812484,28.37,0.00,0.00,0.00,,1.85
1237,1556812484,28.37,0.00,0.00,0.00,,1.85
1238,1556812484,28.37,0.00,0.00,0.00,,1.85
1239,1556812484,28.37,0.00,0.00,0.00,,1.85
1240,1556812484,28.44,0.00,0.00,0.00,,1.851241,1556812484,28.44,0.00,0.00,0.00,,1.85
1242,1556812484,28.44,0.00,0.00,0.00,,1.85
1243,1556812484,28.44,0.00,0.00,0.00,,1.85
1244,1556812484,28.44,0.00,0.00,0.00,,1.85
1245,1556812484,28.44,0.00,0.00,0.00,,1.851246,1556812484,28.44,0.00,0.00,0.00,,1.85
1247,1556812485,28.44,0.00,0.00,0.00,,1.85
1248,1556812485,28.44,0.00,0.00,0.00,,1.85
1249,1556812485,28.44,0.00,0.00,0.00,,1.85
1250,1556812485,28.44,0.00,0.00,0.00,,1.851251,1556812485,28.44,0.00,0.00,0.00,,1.85
1252,1556812485,28.44,0.00,0.00,0.00,,1.85
1253,1556812485,28.44,0.00,0.00,0.00,,1.85
1254,1556812485,28.44,0.00,0.00,0.00,,1.85
1255,1556812485,28.44,0.00,0.00,0.00,,1.851256,1556812485,28.44,0.00,0.00,0.00,,1.85
1257,1556812485,28.44,0.00,0.00,0.00,,1.85
1258,1556812485,28.44,0.00,0.00,0.00,,1.85
1259,1556812485,28.44,0.00,0.00,0.00,,1.85
1260,1556812485,28.44,0.00,0.00,0.00,,1.851261,1556812485,28.44,0.00,0.00,0.00,,1.85
1262,1556812485,28.37,0.00,0.00,0.00,,1.85
1263,1556812485,28.37,0.00,0.00,0.00,,1.85
1264,1556812485,28.37,0.00,0.00,0.00,,1.85
1265,1556812485,28.37,0.00,0.00,0.00,,1.851266,1556812485,28.37,0.00,0.00,0.00,,1.85
1267,1556812485,28.37,0.00,0.00,0.00,,1.85
1268,1556812485,28.37,0.00,0.00,0.00,,1.85
1269,1556812485,28.44,0.00,0.00,0.00,,1.85
1270,1556812485,28.44,0.00,0.00,0.00,,1.851271,1556812485,28.44,0.00,0.00,0.00,,1.85
1272,1556812485,28.44,0.00,0.00,0.00,,1.85
1273,1556812485,28.44,0.00,0.00,0.00,,1.85
1274,1556812485,28.44,0.00,0.00,0.00,,1.85
1275,1556812486,28.44,0.00,0.00,0.00,,1.851276,1556812486,28.37,0.00,0.00,0.00,,1.85
1277,1556812486,28.37,0.00,0.00,0.00,,1.85
1278,1556812486,28.37,0.00,0.00,0.00,,1.85
1279,1556812486,28.37,0.00,0.00,0.00,,1.85
1280,1556812486,28.37,0.00,0.00,0.00,,1.851281,1556812486,28.37,0.00,0.00,0.00,,1.85
1282,1556812486,28.37,0.00,0.00,0.00,,1.85
1283,1556812486,28.37,0.00,0.00,0.00,,1.85
1284,1556812486,28.37,0.00,0.00,0.00,,1.85
1285,1556812486,28.37,0.00,0.00,0.00,,1.851286,1556812486,28.37,0.00,0.00,0.00,,1.85
1287,1556812486,28.37,0.00,0.00,0.00,,1.85
1288,1556812486,28.37,0.00,0.00,0.00,,1.85
1289,1556812486,28.37,0.00,0.00,0.00,,1.85
1290,1556812486,28.37,0.00,0.00,0.00,,1.851291,1556812486,28.44,0.00,0.00,0.00,,1.85
1292,1556812486,28.44,0.00,0.00,0.00,,1.85
1293,1556812486,28.44,0.00,0.00,0.00,,1.85
1294,1556812486,28.44,0.00,0.00,0.00,,1.85
1295,1556812486,28.44,0.00,0.00,0.00,,1.851296,1556812486,28.44,0.00,0.00,0.00,,1.85
1297,1556812486,28.44,0.00,0.00,0.00,,1.85
1298,1556812486,28.37,0.00,0.00,0.00,,1.85
1299,1556812486,28.37,0.00,0.00,0.00,,1.85
1300,1556812486,28.37,0.00,0.00,0.00,,1.851301,1556812486,28.37,0.00,0.00,0.00,,1.85
1302,1556812486,28.37,0.00,0.00,0.00,,1.85
1303,1556812486,28.37,0.00,0.00,0.00,,1.85
1304,1556812487,28.37,0.00,0.00,0.00,,1.85
1305,1556812487,28.37,0.00,0.00,0.00,,1.851306,1556812487,28.37,0.00,0.00,0.00,,1.85
1307,1556812487,28.37,0.00,0.00,0.00,,1.85
1308,1556812487,28.37,0.00,0.00,0.00,,1.85
1309,1556812487,28.37,0.00,0.00,0.00,,1.85
1310,1556812487,28.37,0.00,0.00,0.00,,1.851311,1556812487,28.37,0.00,0.00,0.00,,1.85
1312,1556812487,28.37,0.00,0.00,0.00,,1.85
1313,1556812487,28.44,0.00,0.00,0.00,,1.85
1314,1556812487,28.44,0.00,0.00,0.00,,1.85
1315,1556812487,28.44,0.00,0.00,0.00,,1.851316,1556812487,28.44,0.00,0.00,0.00,,1.85
1317,1556812487,28.44,0.00,0.00,0.00,,1.85
1318,1556812487,28.44,0.00,0.00,0.00,,1.85
1319,1556812487,28.44,0.00,0.00,0.00,,1.85
1320,1556812487,28.44,0.00,0.00,0.00,,1.851321,1556812487,28.44,0.00,0.00,0.00,,1.85
1322,1556812487,28.44,0.00,0.00,0.00,,1.85
1323,1556812487,28.44,0.00,0.00,0.00,,1.85
1324,1556812487,28.44,0.00,0.00,0.00,,1.85
1325,1556812487,28.44,0.00,0.00,0.00,,1.851326,1556812487,28.44,0.00,0.00,0.00,,1.85
1327,1556812487,28.44,0.00,0.00,0.00,,1.85
1328,1556812487,28.44,0.00,0.00,0.00,,1.85
1329,1556812487,28.44,0.00,0.00,0.00,,1.85
1330,1556812487,28.44,0.00,0.00,0.00,,1.851331,1556812487,28.44,0.00,0.00,0.00,,1.85
1332,1556812488,28.44,0.00,0.00,0.00,,1.85
1333,1556812488,28.44,0.00,0.00,0.00,,1.85
1334,1556812488,28.44,0.00,0.00,0.00,,1.85
1335,1556812488,28.37,0.00,0.00,0.00,,1.851336,1556812488,28.37,0.00,0.00,0.00,,1.85
1337,1556812488,28.37,0.00,0.00,0.00,,1.85
1338,1556812488,28.37,0.00,0.00,0.00,,1.85
1339,1556812488,28.37,0.00,0.00,0.00,,1.85
1340,1556812488,28.37,0.00,0.00,0.00,,1.851341,1556812488,28.37,0.00,0.00,0.00,,1.85
1342,1556812488,28.44,0.00,0.00,0.00,,1.85
1343,1556812488,28.44,0.00,0.00,0.00,,1.85
1344,1556812488,28.44,0.00,0.00,0.00,,1.85
1345,1556812488,28.44,0.00,0.00,0.00,,1.851346,1556812488,28.44,0.00,0.00,0.00,,1.85
1347,1556812488,28.44,0.00,0.00,0.00,,1.85
1348,1556812488,28.44,0.00,0.00,0.00,,1.85
1349,1556812488,28.44,0.00,0.00,0.00,,1.85
1350,1556812488,28.44,0.00,0.00,0.00,,1.85file_3.csv
File contains: 32767 bytes
Sample Number,Unixtime,Temperature (C),Accel X,Accel Y,AccelZ,Motor,Voltage (V)1,1557157470
2,1557157470
3,1557157470
4,1557157470
5,1557157470
6,1557157470
7,1557157470
8,1557157470
9,1557157471
10,155715747111,1557157471
12,1557157471
13,1557157471
14,155715747115,1557157471
16,1557157471
17,1557157472
18,155715747219,1557157472
20,1557157472
21,1557157472
22,155715747223,1557157472
24,1557157472
25,1557157472
26,155715747327,1557157473
28,1557157473
29,1557157473
30,155715747331,1557157473
32,1557157473
33,1557157473
34,155715747435,1557157474
36,1557157474
37,1557157474
38,155715747439,1557157474
40,1557157474
41,1557157474
42,155715747543,1557157475
44,1557157475
45,1557157475
46,155715747547,1557157475
48,1557157475
49,1557157475
50,155715747651,1557157476
52,1557157476
53,1557157476
54,155715747655,1557157476
56,1557157476
57,1557157476
58,155715747759,1557157477
60,1557157477
61,1557157477
62,155715747763,1557157477
64,1557157477
65,1557157477
66,155715747867,1557157478
68,1557157478
69,1557157478
70,155715747871,1557157478
72,1557157478
73,1557157478
74,155715747975,1557157479
76,1557157479
77,1557157479
78,155715747979,1557157479
80,1557157479
81,1557157479
82,155715748083,1557157480
84,1557157480
85,1557157480
86,155715748087,1557157480
88,1557157480
89,1557157480
90,155715748191,1557157481
92,1557157481
93,1557157481
94,155715748195,1557157481
96,1557157481
97,1557157481
98,155715748199,1557157482
100,1557157482
101,1557157482
102,1557157482
103,1557157482104,1557157482
105,1557157482
106,1557157482
107,1557157483
108,1557157483109,1557157483
110,1557157483
111,1557157483
112,1557157483
113,1557157483114,1557157483
115,1557157484
116,1557157484
117,1557157484
118,1557157484119,1557157484
120,1557157484
121,1557157484
122,1557157484
123,1557157485124,1557157485
125,1557157485
126,1557157485
127,1557157485
128,1557157485129,1557157485
130,1557157485
131,1557157486
132,1557157486
133,1557157486134,1557157486
135,1557157486
136,1557157486
137,1557157486
138,1557157486139,1557157487
140,1557157487
141,1557157487
142,1557157487
143,1557157487144,1557157487
145,1557157487
146,1557157487
147,1557157488
148,1557157488149,1557157488
150,1557157488
151,1557157488
152,1557157488
153,1557157488154,1557157488
155,1557157489
156,1557157489
157,1557157489
158,1557157489159,1557157489
160,1557157489
161,1557157489
162,1557157489
163,1557157490164,1557157490
165,1557157490
166,1557157490
167,1557157490
168,1557157490169,1557157490
170,1557157490
171,1557157491
172,1557157491
173,1557157491174,1557157491
175,1557157491
176,1557157491
177,1557157491
178,1557157491179,1557157492
180,1557157529
181,1557157530
182,1557157532
183,1557157533184,1557157534
185,1557157535
186,1557157536
187,1557157537
188,1557157538189,1557157539
190,1557157541
191,1557157542
192,1557157543
193,1557157544194,1557157545
195,1557157545
196,1557157545
197,1557157545
198,1557157545199,1557157546
200,1557157546
201,1557157546
202,1557157546
203,1557157546204,1557157546
205,1557157546
206,1557157546
207,1557157547
208,1557157547209,1557157547
210,1557157547
211,1557157547
212,1557157547
213,1557157547214,1557157547
215,1557157548
216,1557157548
217,1557157548
218,1557157548219,1557157548
220,1557157548
221,1557157548
222,1557157548
223,1557157549224,1557157549
225,1557157549
226,1557157549
227,1557157549
228,1557157549229,1557157549
230,1557157549
231,1557157550
232,1557157550
233,1557157550234,1557157550
235,1557157550
236,1557157550
237,1557157550
238,1557157550239,1557157551
240,1557157551
241,1557157551
242,1557157551
243,1557157551244,1557157551
245,1557157551
246,1557157551
247,1557157552
248,1557157552249,1557157552
250,1557157552
251,1557157552
252,1557157552
253,1557157552254,1557157552
255,1557157553
256,1557157553
257,1557157553
258,1557157553259,1557157553
260,1557157553
261,1557157553
262,1557157553
263,1557157554264,1557157554
265,1557157554
266,1557157554
267,1557157554
268,1557157554269,1557157554
270,1557157554
271,1557157555
272,1557157555
273,1557157555274,1557157555
275,1557157555
276,1557157555
277,1557157555
278,1557157555279,1557157556
280,1557157556
281,1557157556
282,1557157556
283,1557157556284,1557157556
285,1557157556
286,1557157556
287,1557157557
288,1557157557289,1557157557
290,1557157557
291,1557157557
292,1557157557
293,1557157557294,1557157557
295,1557157558
296,1557157558
297,1557157558
298,1557157558299,1557157558
300,1557157558
301,1557157558
302,1557157558
303,1557157558304,1557157559
305,1557157559
306,1557157559
307,1557157559
308,1557157559309,1557157559
310,1557157559
311,1557157559
312,1557157560
313,1557157560314,1557157560
315,1557157560
316,1557157560
317,1557157560
318,1557157560319,1557157560
320,1557157561
321,1557157561
322,1557157561
323,1557157561324,1557157561
325,1557157561
326,1557157561
327,1557157561
328,1557157562329,1557157562
330,1557157562
331,1557157562
332,1557157562
333,1557157562334,1557157562
335,1557157562
336,1557157563
337,1557157563
338,1557157563339,1557157563
340,1557157563
341,1557157563
342,1557157563
343,1557157563344,1557157564
345,1557157564
346,1557157564
347,1557157564
348,1557157564349,1557157564
350,1557157564
351,1557157564
352,1557157565
353,1557157565354,1557157565
355,1557157565
356,1557157565
357,1557157565
358,1557157565359,1557157565
360,1557157566
361,1557157566
362,1557157566
363,1557157566364,1557157566
365,1557157566
366,1557157566
367,1557157566
368,1557157567369,1557157567
370,1557157567
371,1557157567
372,1557157567
373,1557157567374,1557157567
375,1557157567
376,1557157568
377,1557157568
378,1557157568379,1557157568
380,1557157568
381,1557157568
382,1557157568
383,1557157568384,1557157568
385,1557157569
386,1557157569
387,1557157569
388,1557157569389,1557157569
390,1557157569
391,1557157569
392,1557157569
393,1557157570394,1557157570
395,1557157570
396,1557157570
397,1557157570
398,1557157570399,1557157570
400,1557157570
401,1557157571
402,1557157571
403,1557157571404,1557157571
405,1557157571
406,1557157571
407,1557157571
408,1557157571409,1557157572
410,1557157572
411,1557157572
412,1557157572
413,1557157572414,1557157572
415,1557157572
416,1557157572
417,1557157573
418,1557157573419,1557157573
420,1557157573
421,1557157573
422,1557157573
423,1557157573424,1557157573
425,1557157574
426,1557157574
427,1557157574
428,1557157574429,1557157574
430,1557157574
431,1557157574
432,1557157574
433,1557157575434,1557157575
435,1557157575
436,1557157575
437,1557157575
438,1557157575439,1557157575
440,1557157575
441,1557157576
442,1557157576
443,1557157576444,1557157576
445,1557157576
446,1557157576
447,1557157576
448,1557157576449,1557157577
450,1557157577
451,1557157577
452,1557157577
453,1557157577454,1557157577
455,1557157577
456,1557157577
457,1557157578
458,1557157578459,1557157578
460,1557157578
461,1557157578
462,1557157578
463,1557157578464,1557157578
465,1557157578
466,1557157579
467,1557157579
468,1557157579469,1557157579
470,1557157579
471,1557157579
472,1557157579
473,1557157579474,1557157580
475,1557157580
476,1557157580
477,1557157580
478,1557157580479,1557157580
480,1557157580
481,1557157580
482,1557157581
483,1557157581484,1557157581
485,1557157581
486,1557157581
487,1557157581
488,1557157581489,1557157581
490,1557157582
491,1557157582
492,1557157582
493,1557157582494,1557157582
495,1557157582
496,1557157582
497,1557157582
498,1557157583499,1557157583
500,1557157583
501,1557157583
502,1557157583
503,1557157583504,1557157583
505,1557157583
506,1557157584
507,1557157584
508,1557157584509,1557157584
510,1557157584
511,1557157584
512,1557157584
513,1557157584514,1557157585
515,1557157585
516,1557157585
517,1557157585
518,1557157585519,1557157585
520,1557157585
521,1557157585
522,1557157586
523,1557157586524,1557157586
525,1557157586
526,1557157586
527,1557157586
528,1557157586529,1557157586
530,1557157587
531,1557157587
532,1557157587
533,1557157587534,1557157587
535,1557157587
536,1557157587
537,1557157587
538,1557157588539,1557157588
540,1557157588
541,1557157588
542,1557157588
543,1557157588544,1557157588
545,1557157588
546,1557157589
547,1557157589
548,1557157589549,1557157589
550,1557157589
551,1557157589
552,1557157589
553,1557157589554,1557157590
555,1557157590
556,1557157590
557,1557157590
558,1557157590559,1557157590
560,1557157590
561,1557157591
562,1557157591
563,1557157591564,1557157591
565,1557157591
566,1557157591
567,1557157591
568,1557157591569,1557157592
570,1557157592
571,1557157592
572,1557157592
573,1557157592574,1557157592
575,1557157592
576,1557157593
577,1557157593
578,1557157593579,1557157593
580,1557157593
581,1557157593
582,1557157593
583,1557157593584,1557157594
585,1557157594
586,1557157594
587,1557157594
588,1557157594589,1557157594
590,1557157594
591,1557157594
592,1557157595
593,1557157595594,1557157595
595,1557157595
596,1557157595
597,1557157595
598,1557157595599,1557157595
600,1557157596
601,1557157596
602,1557157596
603,1557157596604,1557157596
605,1557157596
606,1557157596
607,1557157596
608,1557157597609,1557157597
610,1557157597
611,1557157597
612,1557157597
613,1557157597614,1557157597
615,1557157597
616,1557157598
617,1557157598
618,1557157598619,1557157598
620,1557157598
621,1557157598
622,1557157598
623,1557157598624,1557157599
625,1557157599
626,1557157599
627,1557157599
628,1557157599629,1557157599
630,1557157599
631,1557157599
632,1557157600
633,1557157600634,1557157600
635,1557157600
636,1557157600
637,1557157600
638,1557157600639,1557157600
640,1557157601
641,1557157601
642,1557157601
643,1557157601644,1557157601
645,1557157601
646,1557157601
647,1557157601
648,1557157602649,1557157602
650,1557157602
651,1557157602
652,1557157602
653,1557157602654,1557157602
655,1557157602
656,1557157603
657,1557157603
658,1557157603659,1557157603
660,1557157603
661,1557157603
662,1557157603
663,1557157604664,1557157604
665,1557157604
666,1557157604
667,1557157604
668,1557157604669,1557157604
670,1557157604
671,1557157605
672,1557157605
673,1557157605674,1557157605
675,1557157605
676,1557157605
677,1557157605
678,1557157605679,1557157606
680,1557157606
681,1557157606
682,1557157606
683,1557157606684,1557157606
685,1557157606
686,1557157606
687,1557157607
688,1557157607689,1557157607
690,1557157607
691,1557157607
692,1557157607
693,1557157607694,1557157607
695,1557157608
696,1557157608
697,1557157608
698,1557157608699,1557157608
700,1557157608
701,1557157608
702,1557157608
703,1557157609704,1557157609
705,1557157609
706,1557157609
707,1557157609
708,1557157609709,1557157609
710,1557157609
711,1557157610
712,1557157610
713,1557157610714,1557157610
715,1557157610
716,1557157610
717,1557157610
718,1557157610719,1557157611
720,1557157611
721,1557157611
722,1557157611
723,1557157611724,1557157611
725,1557157611
726,1557157611
727,1557157612
728,1557157612729,1557157612
730,1557157612
731,1557157612
732,1557157612
733,1557157612734,1557157612
735,1557157613
736,1557157613
737,1557157613
738,1557157613739,1557157613
740,1557157613
741,1557157613
742,1557157613
743,1557157614744,1557157614
745,1557157614
746,1557157614
747,1557157614
748,1557157614749,1557157614
750,1557157614
751,1557157615
752,1557157615
753,1557157615754,1557157615
755,1557157615
756,1557157615
757,1557157615
758,1557157615759,1557157616
760,1557157616
761,1557157616
762,1557157616
763,1557157616764,1557157616
765,1557157616
766,1557157616
767,1557157617
768,1557157617769,1557157617
770,1557157617
771,1557157617
772,1557157617
773,1557157617774,1557157617
775,1557157618
776,1557157618
777,1557157618
778,1557157618779,1557157618
780,1557157618
781,1557157618
782,1557157619
783,1557157619784,1557157619
785,1557157619
786,1557157619
787,1557157619
788,1557157619789,1557157619
790,1557157620
791,1557157620
792,1557157620
793,1557157620794,1557157620
795,1557157620
796,1557157620
797,1557157620
798,1557157621799,1557157621
800,1557157621
801,1557157621
802,1557157621
803,1557157621804,1557157621
805,1557157621
806,1557157622
807,1557157622
808,1557157622809,1557157622
810,1557157622
811,1557157622
812,1557157622
813,1557157622814,1557157623
815,1557157623
816,1557157623
817,1557157623
818,1557157623819,1557157623
820,1557157623
821,1557157623
822,1557157624
823,1557157624824,1557157624
825,1557157624
826,1557157624
827,1557157624
828,1557157624829,1557157624
830,1557157625
831,1557157625
832,1557157625
833,1557157625834,1557157625
835,1557157625
836,1557157625
837,1557157625
838,1557157626839,1557157626
840,1557157626
841,1557157626
842,1557157626
843,1557157626844,1557157626
845,1557157626
846,1557157627
847,1557157627
848,1557157627849,1557157627
850,1557157627
851,1557157627
852,1557157627
853,1557157627854,1557157628
855,1557157628
856,1557157628
857,1557157628
858,1557157628859,1557157628
860,1557157628
861,1557157628
862,1557157629
863,1557157629864,1557157629
865,1557157629
866,1557157629
867,1557157629
868,1557157629869,1557157629
870,1557157630
871,1557157630
872,1557157630
873,1557157630874,1557157630
875,1557157630
876,1557157630
877,1557157630
878,1557157631879,1557157631
880,1557157631
881,1557157631
882,1557157631
883,1557157631884,1557157631
885,1557157631
886,1557157632
887,1557157632
888,1557157632889,1557157632
890,1557157632
891,1557157632
892,1557157632
893,1557157633894,1557157633
895,1557157633
896,1557157633
897,1557157633
898,1557157633899,1557157633
900,1557157633
901,1557157634
902,1557157634
903,1557157634904,1557157634
905,1557157634
906,1557157634
907,1557157634
908,1557157634909,1557157635
910,1557157635
911,1557157635
912,1557157635
913,1557157635914,1557157635
915,1557157635
916,1557157635
917,1557157636
918,1557157636919,1557157636
920,1557157636
921,1557157636
922,1557157636
923,1557157636924,1557157636
925,1557157637
926,1557157637
927,1557157637
928,1557157637929,1557157637
930,1557157637
931,1557157637
932,1557157637
933,1557157638934,1557157638
935,1557157638
936,1557157638
937,1557157638
938,1557157638939,1557157638
940,1557157638
941,1557157639
942,1557157639
943,1557157639944,1557157639
945,1557157639
946,1557157639
947,1557157639
948,1557157639949,1557157640
950,1557157640
951,1557157640
952,1557157640
953,1557157640954,1557157640
955,1557157640
956,1557157640
957,1557157641
958,1557157641959,1557157641
960,1557157641
961,1557157641
962,1557157641
963,1557157641964,1557157641
965,1557157642
966,1557157642
967,1557157642
968,1557157642969,1557157642
970,1557157642
971,1557157642
972,1557157642
973,1557157643974,1557157643
975,1557157643
976,1557157643
977,1557157643
978,1557157643979,1557157643
980,1557157643
981,1557157644
982,1557157644
983,1557157644984,1557157644
985,1557157644
986,1557157644
987,1557157644
988,1557157644989,1557157645
990,1557157645
991,1557157645
992,1557157645
993,1557157645994,1557157645
995,1557157645
996,1557157645
997,1557157646
998,1557157646999,1557157646
1000,1557157646
1002,1557157646,-0.06,0.00,0.00,0.00,,1.88
1003,1557157646,-0.06,0.00,0.00,0.00,,1.881004,1557157646,-0.06,0.00,0.00,0.00,,1.88
1005,1557157646,-0.06,0.00,0.00,0.00,,1.88
1006,1557157646,-0.06,0.00,0.00,0.00,,1.88
1007,1557157646,-0.06,0.00,0.00,0.00,,1.88
1008,1557157646,-0.06,0.00,0.00,0.00,,1.881009,1557157646,-0.06,0.00,0.00,0.00,,1.88
1010,1557157646,-0.06,0.00,0.00,0.00,,1.88
1011,1557157646,-0.06,0.00,0.00,0.00,,1.88
1012,1557157646,-0.06,0.00,0.00,0.00,,1.88
1013,1557157647,-0.06,0.00,0.00,0.00,,1.881014,1557157647,-0.06,0.00,0.00,0.00,,1.88
1015,1557157647,-0.06,0.00,0.00,0.00,,1.88
1016,1557157647,-0.06,0.00,0.00,0.00,,1.88
1017,1557157647,-0.06,0.00,0.00,0.00,,1.88
1018,1557157647,-0.06,0.00,0.00,0.00,,1.881019,1557157647,-0.06,0.00,0.00,0.00,,1.88
1020,1557157647,-0.06,0.00,0.00,0.00,,1.88
1021,1557157647,-0.06,0.00,0.00,0.00,,1.88
1022,1557157647,-0.06,0.00,0.00,0.00,,1.88
1023,1557157647,-0.06,0.00,0.00,0.00,,1.881024,1557157647,-0.06,0.00,0.00,0.00,,1.88
1025,1557157647,-0.06,0.00,0.00,0.00,,1.88
1026,1557157647,-0.06,0.00,0.00,0.00,,1.88
1027,1557157647,-0.06,0.00,0.00,0.00,,1.88
1028,1557157647,-0.06,0.00,0.00,0.00,,1.881029,1557157647,-0.06,0.00,0.00,0.00,,1.88
1030,1557157647,-0.06,0.00,0.00,0.00,,1.88
1031,1557157647,-0.06,0.00,0.00,0.00,,1.88
1032,1557157647,-0.06,0.00,0.00,0.00,,1.88
1033,1557157647,-0.06,0.00,0.00,0.00,,1.881034,1557157647,-0.06,0.00,0.00,0.00,,1.88
1035,1557157647,-0.06,0.00,0.00,0.00,,1.88
1036,1557157647,-0.06,0.00,0.00,0.00,,1.88
1037,1557157647,-0.06,0.00,0.00,0.00,,1.88
1038,1557157647,-0.06,0.00,0.00,0.00,,1.881039,1557157647,-0.06,0.00,0.00,0.00,,1.88
1040,1557157647,-0.06,0.00,0.00,0.00,,1.88
1041,1557157647,-0.06,0.00,0.00,0.00,,1.88
1042,1557157648,-0.06,0.00,0.00,0.00,,1.88
1043,1557157648,-0.06,0.00,0.00,0.00,,1.881044,1557157648,-0.06,0.00,0.00,0.00,,1.88
1045,1557157648,-0.06,0.00,0.00,0.00,,1.88
1046,1557157648,-0.06,0.00,0.00,0.00,,1.88
1047,1557157648,-0.06,0.00,0.00,0.00,,1.88
1048,1557157648,-0.06,0.00,0.00,0.00,,1.881049,1557157648,-0.06,0.00,0.00,0.00,,1.88
1050,1557157648,-0.06,0.00,0.00,0.00,,1.88
1051,1557157648,-0.06,0.00,0.00,0.00,,1.88
1052,1557157648,-0.06,0.00,0.00,0.00,,1.88
1053,1557157648,-0.06,0.00,0.00,0.00,,1.881054,1557157648,-0.06,0.00,0.00,0.00,,1.88
1055,1557157648,-0.06,0.00,0.00,0.00,,1.88
1056,1557157648,-0.06,0.00,0.00,0.00,,1.88
1057,1557157648,-0.06,0.00,0.00,0.00,,1.88
1058,1557157648,-0.06,0.00,0.00,0.00,,1.881059,1557157648,-0.06,0.00,0.00,0.00,,1.88
1060,1557157648,-0.06,0.00,0.00,0.00,,1.88
1061,1557157648,-0.06,0.00,0.00,0.00,,1.88
1062,1557157648,-0.06,0.00,0.00,0.00,,1.88
1063,1557157648,-0.06,0.00,0.00,0.00,,1.881064,1557157648,-0.06,0.00,0.00,0.00,,1.88
1065,1557157648,-0.06,0.00,0.00,0.00,,1.88
1066,1557157648,-0.06,0.00,0.00,0.00,,1.88
1067,1557157648,-0.06,0.00,0.00,0.00,,1.88
1068,1557157648,-0.06,0.00,0.00,0.00,,1.881069,1557157648,-0.06,0.00,0.00,0.00,,1.88
1070,1557157648,-0.06,0.00,0.00,0.00,,1.88
1071,1557157649,-0.06,0.00,0.00,0.00,,1.88
1072,1557157649,-0.06,0.00,0.00,0.00,,1.88
1073,1557157649,-0.06,0.00,0.00,0.00,,1.881074,1557157649,-0.06,0.00,0.00,0.00,,1.88
1075,1557157649,-0.06,0.00,0.00,0.00,,1.88
1076,1557157649,-0.06,0.00,0.00,0.00,,1.88
1077,1557157649,-0.06,0.00,0.00,0.00,,1.88
1078,1557157649,-0.06,0.00,0.00,0.00,,1.881079,1557157649,-0.06,0.00,0.00,0.00,,1.88
1080,1557157649,-0.06,0.00,0.00,0.00,,1.88
1081,1557157649,-0.06,0.00,0.00,0.00,,1.88
1082,1557157649,-0.06,0.00,0.00,0.00,,1.88
1083,1557157649,-0.06,0.00,0.00,0.00,,1.881084,1557157649,-0.06,0.00,0.00,0.00,,1.88
1085,1557157649,-0.06,0.00,0.00,0.00,,1.88
1086,1557157649,-0.06,0.00,0.00,0.00,,1.88
1087,1557157649,-0.06,0.00,0.00,0.00,,1.88
1088,1557157649,-0.06,0.00,0.00,0.00,,1.881089,1557157649,-0.06,0.00,0.00,0.00,,1.88
1090,1557157649,-0.06,0.00,0.00,0.00,,1.88
1091,1557157649,-0.06,0.00,0.00,0.00,,1.88
1092,1557157649,-0.06,0.00,0.00,0.00,,1.88
1093,1557157649,-0.06,0.00,0.00,0.00,,1.881094,1557157649,-0.06,0.00,0.00,0.00,,1.88
1095,1557157649,-0.06,0.00,0.00,0.00,,1.88
1096,1557157649,-0.06,0.00,0.00,0.00,,1.88
1097,1557157649,-0.06,0.00,0.00,0.00,,1.88
1098,1557157649,-0.06,0.00,0.00,0.00,,1.881099,1557157649,-0.06,0.00,0.00,0.00,,1.88
1100,1557157650,-0.06,0.00,0.00,0.00,,1.88
1101,1557157650,-0.06,0.00,0.00,0.00,,1.88
1102,1557157650,-0.06,0.00,0.00,0.00,,1.88
1103,1557157650,-0.06,0.00,0.00,0.00,,1.881104,1557157650,-0.06,0.00,0.00,0.00,,1.88
1105,1557157650,-0.06,0.00,0.00,0.00,,1.88
1106,1557157650,-0.06,0.00,0.00,0.00,,1.88
1107,1557157650,-0.06,0.00,0.00,0.00,,1.88
1108,1557157650,-0.06,0.00,0.00,0.00,,1.881109,1557157650,-0.06,0.00,0.00,0.00,,1.88
1110,1557157650,-0.06,0.00,0.00,0.00,,1.88
1111,1557157650,-0.06,0.00,0.00,0.00,,1.88
1112,1557157650,-0.06,0.00,0.00,0.00,,1.88
1113,1557157650,-0.06,0.00,0.00,0.00,,1.881114,1557157650,-0.06,0.00,0.00,0.00,,1.88
1115,1557157650,-0.06,0.00,0.00,0.00,,1.88
1116,1557157650,-0.06,0.00,0.00,0.00,,1.88
1117,1557157650,-0.06,0.00,0.00,0.00,,1.88
1118,1557157650,-0.06,0.00,0.00,0.00,,1.881119,1557157650,-0.06,0.00,0.00,0.00,,1.88
1120,1557157650,-0.06,0.00,0.00,0.00,,1.88
1121,1557157650,-0.06,0.00,0.00,0.00,,1.88
1122,1557157650,-0.06,0.00,0.00,0.00,,1.88
1123,1557157650,-0.06,0.00,0.00,0.00,,1.881124,1557157650,-0.06,0.00,0.00,0.00,,1.88
1125,1557157650,-0.06,0.00,0.00,0.00,,1.88
1126,1557157650,-0.06,0.00,0.00,0.00,,1.88
1127,1557157650,-0.06,0.00,0.00,0.00,,1.88
1128,1557157651,-0.06,0.00,0.00,0.00,,1.881129,1557157651,-0.06,0.00,0.00,0.00,,1.88
1130,1557157651,-0.06,0.00,0.00,0.00,,1.88
1131,1557157651,-0.06,0.00,0.00,0.00,,1.88
1132,1557157651,-0.06,0.00,0.00,0.00,,1.88
1133,1557157651,-0.06,0.00,0.00,0.00,,1.881134,1557157651,-0.06,0.00,0.00,0.00,,1.88
1135,1557157651,-0.06,0.00,0.00,0.00,,1.88
1136,1557157651,-0.06,0.00,0.00,0.00,,1.88
1137,1557157651,-0.06,0.00,0.00,0.00,,1.88
1138,1557157651,-0.06,0.00,0.00,0.00,,1.881139,1557157651,-0.06,0.00,0.00,0.00,,1.88
1140,1557157651,-0.06,0.00,0.00,0.00,,1.88
1141,1557157651,-0.06,0.00,0.00,0.00,,1.88
1142,1557157651,-0.06,0.00,0.00,0.00,,1.88
1143,1557157651,-0.06,0.00,0.00,0.00,,1.881144,1557157651,-0.06,0.00,0.00,0.00,,1.88
1145,1557157651,-0.06,0.00,0.00,0.00,,1.88
1146,1557157651,-0.06,0.00,0.00,0.00,,1.88
1147,1557157651,-0.06,0.00,0.00,0.00,,1.88
1148,1557157651,-0.06,0.00,0.00,0.00,,1.881149,1557157651,-0.06,0.00,0.00,0.00,,1.88
1150,1557157651,-0.06,0.00,0.00,0.00,,1.88
1151,1557157651,-0.06,0.00,0.00,0.00,,1.88
1152,1557157651,-0.06,0.00,0.00,0.00,,1.88
1153,1557157651,-0.06,0.00,0.00,0.00,,1.881154,1557157651,-0.06,0.00,0.00,0.00,,1.88
1155,1557157651,-0.06,0.00,0.00,0.00,,1.88
1156,1557157651,-0.06,0.00,0.00,0.00,,1.88
1157,1557157652,-0.06,0.00,0.00,0.00,,1.88
1158,1557157652,-0.06,0.00,0.00,0.00,,1.881159,1557157652,-0.06,0.00,0.00,0.00,,1.88
1160,1557157652,-0.06,0.00,0.00,0.00,,1.88
1161,1557157652,-0.06,0.00,0.00,0.00,,1.88
1162,1557157652,-0.06,0.00,0.00,0.00,,1.88
1163,1557157652,-0.06,0.00,0.00,0.00,,1.881164,1557157652,-0.06,0.00,0.00,0.00,,1.88
1165,1557157652,-0.06,0.00,0.00,0.00,,1.88
1166,1557157652,-0.06,0.00,0.00,0.00,,1.88
1167,1557157652,-0.06,0.00,0.00,0.00,,1.88
1168,1557157652,-0.06,0.00,0.00,0.00,,1.881169,1557157652,-0.06,0.00,0.00,0.00,,1.88
1170,1557157652,-0.06,0.00,0.00,0.00,,1.88
1171,1557157652,-0.06,0.00,0.00,0.00,,1.88
1172,1557157652,-0.06,0.00,0.00,0.00,,1.88
1173,1557157652,-0.06,0.00,0.00,0.00,,1.881174,1557157652,-0.06,0.00,0.00,0.00,,1.88
1175,1557157652,-0.06,0.00,0.00,0.00,,1.88
1176,1557157652,-0.06,0.00,0.00,0.00,,1.88
1177,1557157652,-0.06,0.00,0.00,0.00,,1.88
1178,1557157652,-0.06,0.00,0.00,0.00,,1.881179,1557157652,-0.06,0.00,0.00,0.00,,1.88
1180,1557157652,-0.06,0.00,0.00,0.00,,1.88
1181,1557157652,-0.06,0.00,0.00,0.00,,1.88
1182,1557157652,-0.06,0.00,0.00,0.00,,1.88
1183,1557157652,-0.06,0.00,0.00,0.00,,1.881184,1557157652,-0.06,0.00,0.00,0.00,,1.88
1185,1557157652,-0.06,0.00,0.00,0.00,,1.88
1186,1557157653,-0.06,0.00,0.00,0.00,,1.88
1187,1557157653,-0.06,0.00,0.00,0.00,,1.88
1188,1557157653,-0.06,0.00,0.00,0.00,,1.881189,1557157653,-0.06,0.00,0.00,0.00,,1.88
1190,1557157653,-0.06,0.00,0.00,0.00,,1.88
1191,1557157653,-0.06,0.00,0.00,0.00,,1.88
1192,1557157653,-0.06,0.00,0.00,0.00,,1.88
1193,1557157653,-0.06,0.00,0.00,0.00,,1.881194,1557157653,-0.06,0.00,0.00,0.00,,1.88
1195,1557157653,-0.06,0.00,0.00,0.00,,1.88
1196,1557157653,-0.06,0.00,0.00,0.00,,1.88
1197,1557157653,-0.06,0.00,0.00,0.00,,1.88
1198,1557157653,-0.06,0.00,0.00,0.00,,1.881199,1557157653,-0.06,0.00,0.00,0.00,,1.88
1200,1557157653,-0.06,0.00,0.00,0.00,,1.88
1201,1557157653,-0.06,0.00,0.00,0.00,,1.88
1202,1557157653,-0.06,0.00,0.00,0.00,,1.88
1203,1557157653,-0.06,0.00,0.00,0.00,,1.881204,1557157653,-0.06,0.00,0.00,0.00,,1.88
1205,1557157653,-0.06,0.00,0.00,0.00,,1.88
1206,1557157653,-0.06,0.00,0.00,0.00,,1.88
1207,1557157653,-0.06,0.00,0.00,0.00,,1.88
1208,1557157653,-0.06,0.00,0.00,0.00,,1.881209,1557157653,-0.06,0.00,0.00,0.00,,1.88
1210,1557157653,-0.06,0.00,0.00,0.00,,1.88
1211,1557157653,-0.06,0.00,0.00,0.00,,1.88
1212,1557157653,-0.06,0.00,0.00,0.00,,1.88
1213,1557157653,-0.06,0.00,0.00,0.00,,1.881214,1557157654,-0.06,0.00,0.00,0.00,,1.88
1215,1557157654,-0.06,0.00,0.00,0.00,,1.88
1216,1557157654,-0.06,0.00,0.00,0.00,,1.88
1217,1557157654,-0.06,0.00,0.00,0.00,,1.88
1218,1557157654,-0.06,0.00,0.00,0.00,,1.881219,1557157654,-0.06,0.00,0.00,0.00,,1.88
1220,1557157654,-0.06,0.00,0.00,0.00,,1.88
1221,1557157654,-0.06,0.00,0.00,0.00,,1.88
1222,1557157654,-0.06,0.00,0.00,0.00,,1.88
1223,1557157654,-0.06,0.00,0.00,0.00,,1.881224,1557157654,-0.06,0.00,0.00,0.00,,1.88
1225,1557157654,-0.06,0.00,0.00,0.00,,1.88
1226,1557157654,-0.06,0.00,0.00,0.00,,1.88
1227,1557157654,-0.06,0.00,0.00,0.00,,1.88
1228,1557157654,-0.06,0.00,0.00,0.00,,1.881229,1557157654,-0.06,0.00,0.00,0.00,,1.88
1230,1557157654,-0.06,0.00,0.00,0.00,,1.88
1231,1557157654,-0.06,0.00,0.00,0.00,,1.88
1232,1557157654,-0.06,0.00,0.00,0.00,,1.88
1233,1557157654,-0.06,0.00,0.00,0.00,,1.881234,1557157654,-0.06,0.00,0.00,0.00,,1.88
1235,1557157654,-0.06,0.00,0.00,0.00,,1.88
1236,1557157654,-0.06,0.00,0.00,0.00,,1.88
1237,1557157654,-0.06,0.00,0.00,0.00,,1.88
1238,1557157654,-0.06,0.00,0.00,0.00,,1.881239,1557157654,-0.06,0.00,0.00,0.00,,1.88
1240,1557157654,-0.06,0.00,0.00,0.00,,1.88
1241,1557157654,-0.06,0.00,0.00,0.00,,1.88
1242,1557157654,-0.06,0.00,0.00,0.00,,1.88
1243,1557157655,-0.06,0.00,0.00,0.00,,1.881244,1557157655,-0.06,0.00,0.00,0.00,,1.88
1245,1557157655,-0.06,0.00,0.00,0.00,,1.88
1246,1557157655,-0.06,0.00,0.00,0.00,,1.88
1247,1557157655,-0.06,0.00,0.00,0.00,,1.88
1248,1557157655,-0.06,0.00,0.00,0.00,,1.881249,1557157655,-0.06,0.00,0.00,0.00,,1.88
1250,1557157655,-0.06,0.00,0.00,0.00,,1.88
1251,1557157655,-0.06,0.00,0.00,0.00,,1.88
1252,1557157655,-0.06,0.00,0.00,0.00,,1.88
1253,1557157655,-0.06,0.00,0.00,0.00,,1.881254,1557157655,-0.06,0.00,0.00,0.00,,1.88
1255,1557157655,-0.06,0.00,0.00,0.00,,1.88
1256,1557157655,-0.06,0.00,0.00,0.00,,1.88
1257,1557157655,-0.06,0.00,0.00,0.00,,1.88
1258,1557157655,-0.06,0.00,0.00,0.00,,1.881259,1557157655,-0.06,0.00,0.00,0.00,,1.88
1260,1557157655,-0.06,0.00,0.00,0.00,,1.88
1261,1557157655,-0.06,0.00,0.00,0.00,,1.88
1262,1557157655,-0.06,0.00,0.00,0.00,,1.88
1263,1557157655,-0.06,0.00,0.00,0.00,,1.881264,1557157655,-0.06,0.00,0.00,0.00,,1.88
1265,1557157655,-0.06,0.00,0.00,0.00,,1.88
1266,1557157655,-0.06,0.00,0.00,0.00,,1.88
1267,1557157655,-0.06,0.00,0.00,0.00,,1.88
1268,1557157655,-0.06,0.00,0.00,0.00,,1.881269,1557157655,-0.06,0.00,0.00,0.00,,1.88
1270,1557157655,-0.06,0.00,0.00,0.00,,1.88
1271,1557157655,-0.06,0.00,0.00,0.00,,1.88
1272,1557157656,-0.06,0.00,0.00,0.00,,1.88
1273,1557157656,-0.06,0.00,0.00,0.00,,1.881274,1557157656,-0.06,0.00,0.00,0.00,,1.88
1275,1557157656,-0.06,0.00,0.00,0.00,,1.88
1276,1557157656,-0.06,0.00,0.00,0.00,,1.88
1277,1557157656,-0.06,0.00,0.00,0.00,,1.88
1278,1557157656,-0.06,0.00,0.00,0.00,,1.881279,1557157656,-0.06,0.00,0.00,0.00,,1.88
1280,1557157656,-0.06,0.00,0.00,0.00,,1.88
1281,1557157656,-0.06,0.00,0.00,0.00,,1.88
1282,1557157656,-0.06,0.00,0.00,0.00,,1.88
1283,1557157656,-0.06,0.00,0.00,0.00,,1.881284,1557157656,-0.06,0.00,0.00,0.00,,1.88
1285,1557157656,-0.06,0.00,0.00,0.00,,1.88
1286,1557157656,-0.06,0.00,0.00,0.00,,1.88
1287,1557157656,-0.06,0.00,0.00,0.00,,1.88
1288,1557157656,-0.06,0.00,0.00,0.00,,1.881289,1557157656,-0.06,0.00,0.00,0.00,,1.88
1290,1557157656,-0.06,0.00,0.00,0.00,,1.88
1291,1557157656,-0.06,0.00,0.00,0.00,,1.88
1292,1557157656,-0.06,0.00,0.00,0.00,,1.88
1293,1557157656,-0.06,0.00,0.00,0.00,,1.881294,1557157656,-0.06,0.00,0.00,0.00,,1.88
1295,1557157656,-0.06,0.00,0.00,0.00,,1.88
1296,1557157656,-0.06,0.00,0.00,0.00,,1.88
1297,1557157656,-0.06,0.00,0.00,0.00,,1.88
1298,1557157656,-0.06,0.00,0.00,0.00,,1.881299,1557157656,-0.06,0.00,0.00,0.00,,1.88
1300,1557157656,-0.06,0.00,0.00,0.00,,1.88
1301,1557157657,-0.06,0.00,0.00,0.00,,1.88
1302,1557157657,-0.06,0.00,0.00,0.00,,1.88
1303,1557157657,-0.06,0.00,0.00,0.00,,1.881304,1557157657,-0.06,0.00,0.00,0.00,,1.88
1305,1557157657,-0.06,0.00,0.00,0.00,,1.88
1306,1557157657,-0.06,0.00,0.00,0.00,,1.88
1307,1557157657,-0.06,0.00,0.00,0.00,,1.88
1308,1557157657,-0.06,0.00,0.00,0.00,,1.881309,1557157657,-0.06,0.00,0.00,0.00,,1.88
1310,1557157657,-0.06,0.00,0.00,0.00,,1.88
1311,1557157657,-0.06,0.00,0.00,0.00,,1.88
1312,1557157657,-0.06,0.00,0.00,0.00,,1.88
1313,1557157657,-0.06,0.00,0.00,0.00,,1.881314,1557157657,-0.06,0.00,0.00,0.00,,1.88
1315,1557157657,-0.06,0.00,0.00,0.00,,1.88
1316,1557157657,-0.06,0.00,0.00,0.00,,1.88
1317,1557157657,-0.06,0.00,0.00,0.00,,1.88
1318,1557157657,-0.06,0.00,0.00,0.00,,1.881319,1557157657,-0.06,0.00,0.00,0.00,,1.88
1320,1557157657,-0.06,0.00,0.00,0.00,,1.88
1321,1557157657,-0.06,0.00,0.00,0.00,,1.88
1322,1557157657,-0.06,0.00,0.00,0.00,,1.88
1323,1557157657,-0.06,0.00,0.00,0.00,,1.881324,1557157657,-0.06,0.00,0.00,0.00,,1.88
1325,1557157657,-0.06,0.00,0.00,0.00,,1.88
1326,1557157657,-0.06,0.00,0.00,0.00,,1.88
1327,1557157657,-0.06,0.00,0.00,0.00,,1.88
1328,1557157657,-0.06,0.00,0.00,0.00,,1.881329,1557157658,-0.06,0.00,0.00,0.00,,1.88
1330,1557157658,-0.06,0.00,0.00,0.00,,1.88
1331,1557157658,-0.06,0.00,0.00,0.00,,1.88
1332,1557157658,-0.06,0.00,0.00,0.00,,1.88
1333,1557157658,-0.06,0.00,0.00,0.00,,1.881334,1557157658,-0.06,0.00,0.00,0.00,,1.88
1335,1557157658,-0.06,0.00,0.00,0.00,,1.88
1336,1557157658,-0.06,0.00,0.00,0.00,,1.88
1337,1557157658,-0.06,0.00,0.00,0.00,,1.88
1338,1557157658,-0.06,0.00,0.00,0.00,,1.881339,1557157658,-0.06,0.00,0.00,0.00,,1.88
1340,1557157658,-0.06,0.00,0.00,0.00,,1.88
1341,1557157658,-0.06,0.00,0.00,0.00,,1.88
1342,1557157658,-0.06,0.00,0.00,0.00,,1.88
1343,1557157658,-0.06,0.00,0.00,0.00,,1.881344,1557157658,-0.06,0.00,0.00,0.00,,1.88
1345,1557157658,-0.06,0.00,0.00,0.00,,1.88
1346,1557157658,-0.06,0.00,0.00,0.00,,1.88
1347,1557157658,-0.06,0.00,0.00,0.00,,1.88
1348,1557157658,-0.06,0.00,0.00,0.00,,1.881349,1557157658,-0.06,0.00,0.00,0.00,,1.88
1350,1557157658,-0.06,0.00,0.00,0.00,,1.88
1351,1557157658,-0.06,0.00,0.00,0.00,,1.88
1352,1557157658,-0.06,0.00,0.00,0.00,,1.88
1353,1557157658,-0.06,0.00,0.00,0.00,,1.881354,1557157658,-0.06,0.00,0.00,0.00,,1.88
1355,1557157658,-0.06,0.00,0.00,0.00,,1.88
1356,1557157658,-0.06,0.00,0.00,0.00,,1.88
1357,1557157658,-0.06,0.00,0.00,0.00,,1.88
1358,1557157659,-0.06,0.00,0.00,0.00,,1.881359,1557157659,-0.06,0.00,0.00,0.00,,1.88
1360,1557157659,-0.06,0.00,0.00,0.00,,1.88
1361,1557157659,-0.06,0.00,0.00,0.00,,1.88
1362,1557157659,-0.06,0.00,0.00,0.00,,1.88
1363,1557157659,-0.06,0.00,0.00,0.00,,1.881364,1557157659,-0.06,0.00,0.00,0.00,,1.88
1365,1557157659,-0.06,0.00,0.00,0.00,,1.88
1366,1557157659,-0.06,0.00,0.00,0.00,,1.88
1367,1557157659,-0.06,0.00,0.00,0.00,,1.88
1368,1557157659,-0.06,0.00,0.00,0.00,,1.881369,1557157659,-0.06,0.00,0.00,0.00,,1.88
1370,1557157659,-0.06,0.00,0.00,0.00,,1.88
1371,1557157659,-0.06,0.00,0.00,0.00,,1.88
1372,1557157659,-0.06,0.00,0.00,0.00,,1.88
1373,1557157659,-0.06,0.00,0.00,0.00,,1.881374,1557157659,-0.06,0.00,0.00,0.00,,1.88
1375,1557157659,-0.06,0.00,0.00,0.00,,1.88
1376,1557157659,-0.06,0.00,0.00,0.00,,1.88
1377,1557157659,-0.06,0.00,0.00,0.00,,1.88
1378,1557157659,-0.06,0.00,0.00,0.00,,1.881379,1557157659,-0.06,0.00,0.00,0.00,,1.88
1380,1557157659,-0.06,0.00,0.00,0.00,,1.88
1381,1557157659,-0.06,0.00,0.00,0.00,,1.88
1382,1557157659,-0.06,0.00,0.00,0.00,,1.88
1383,1557157659,-0.06,0.00,0.00,0.00,,1.881384,1557157659,-0.06,0.00,0.00,0.00,,1.88
1385,1557157659,-0.06,0.00,0.00,0.00,,1.88
1386,1557157660,-0.06,0.00,0.00,0.00,,1.88
1387,1557157660,-0.06,0.00,0.00,0.00,,1.88
1388,1557157660,-0.06,0.00,0.00,0.00,,1.881389,1557157660,-0.06,0.00,0.00,0.00,,1.88
1390,1557157660,-0.06,0.00,0.00,0.00,,1.88
1391,1557157660,-0.06,0.00,0.00,0.00,,1.88
1392,1557157660,-0.06,0.00,0.00,0.00,,1.88
1393,1557157660,-0.06,0.00,0.00,0.00,,1.881394,1557157660,-0.06,0.00,0.00,0.00,,1.88
1395,1557157660,-0.06,0.00,0.00,0.00,,1.88
1396,1557157660,-0.06,0.00,0.00,0.00,,1.88
1397,1557157660,-0.06,0.00,0.00,0.00,,1.88
1398,1557157660,-0.06,0.00,0.00,0.00,,1.881399,1557157660,-0.06,0.00,0.00,0.00,,1.88
1400,1557157660,-0.06,0.00,0.00,0.00,,1.88
1401,1557157660,-0.06,0.00,0.00,0.00,,1.88
1402,1557157660,-0.06,0.00,0.00,0.00,,1.88
1403,1557157660,-0.06,0.00,0.00,0.00,,1.881404,1557157660,-0.06,0.00,0.00,0.00,,1.88
1405,1557157660,-0.06,0.00,0.00,0.00,,1.88
1406,1557157660,-0.06,0.00,0.00,0.00,,1.88
1407,1557157660,-0.06,0.00,0.00,0.00,,1.88
1408,1557157660,-0.06,0.00,0.00,0.00,,1.881409,1557157660,-0.06,0.00,0.00,0.00,,1.88
1410,1557157660,-0.06,0.00,0.00,0.00,,1.88
1411,1557157660,-0.06,0.00,0.00,0.00,,1.88
1412,1557157660,-0.06,0.00,0.00,0.00,,1.88
1413,1557157660,-0.06,0.00,0.00,0.00,,1.881414,1557157660,-0.06,0.00,0.00,0.00,,1.88
1415,1557157661,-0.06,0.00,0.00,0.00,,1.88
1416,1557157661,-0.06,0.00,0.00,0.00,,1.88
1417,1557157661,-0.06,0.00,0.00,0.00,,1.88
1418,1557157661,-0.06,0.00,0.00,0.00,,1.881419,1557157661,-0.06,0.00,0.00,0.00,,1.88
1420,1557157661,-0.06,0.00,0.00,0.00,,1.88
1421,1557157661,-0.06,0.00,0.00,0.00,,1.88
1422,1557157661,-0.06,0.00,0.00,0.00,,1.88
1423,1557157661,-0.06,0.00,0.00,0.00,,1.881424,1557157661,-0.06,0.00,0.00,0.00,,1.88
1425,1557157661,-0.06,0.00,0.00,0.00,,1.88
1426,1557157661,-0.06,0.00,0.00,0.00,,1.88
1427,1557157661,-0.06,0.00,0.00,0.00,,1.88
1428,1557157661,-0.06,0.00,0.00,0.00,,1.881429,1557157661,-0.06,0.00,0.00,0.00,,1.88
1430,1557157661,-0.06,0.00,0.00,0.00,,1.88
1431,1557157661,-0.06,0.00,0.00,0.00,,1.88
1432,1557157661,-0.06,0.00,0.00,0.00,,1.88
1433,1557157661,-0.06,0.00,0.00,0.00,,1.881434,1557157661,-0.06,0.00,0.00,0.00,,1.88
1435,1557157661,-0.06,0.00,0.00,0.00,,1.88
1436,1557157661,-0.06,0.00,0.00,0.00,,1.88
1437,1557157661,-0.06,0.00,0.00,0.00,,1.88
1438,1557157661,-0.06,0.00,0.00,0.00,,1.881439,1557157661,-0.06,0.00,0.00,0.00,,1.88
1440,1557157661,-0.06,0.00,0.00,0.00,,1.88
1441,1557157661,-0.06,0.00,0.00,0.00,,1.88
1442,1557157661,-0.06,0.00,0.00,0.00,,1.88
1443,1557157661,-0.06,0.00,0.00,0.00,,1.881444,1557157662,-0.06,0.00,0.00,0.00,,1.88
1445,1557157662,-0.06,0.00,0.00,0.00,,1.88
1446,1557157662,-0.06,0.00,0.00,0.00,,1.88
1447,1557157662,-0.06,0.00,0.00,0.00,,1.88
1448,1557157662,-0.06,0.00,0.00,0.00,,1.881449,1557157662,-0.06,0.00,0.00,0.00,,1.88
1450,1557157662,-0.06,0.00,0.00,0.00,,1.88
1451,1557157662,-0.06,0.00,0.00,0.00,,1.88
1452,1557157662,-0.06,0.00,0.00,0.00,,1.88
1453,1557157662,-0.06,0.00,0.00,0.00,,1.881454,1557157662,-0.06,0.00,0.00,0.00,,1.88
1455,1557157662,-0.06,0.00,0.00,0.00,,1.88
1456,1557157662,-0.06,0.00,0.00,0.00,,1.88
1457,1557157662,-0.06,0.00,0.00,0.00,,1.88
1458,1557157662,-0.06,0.00,0.00,0.00,,1.881459,1557157662,-0.06,0.00,0.00,0.00,,1.88
1460,1557157662,-0.06,0.00,0.00,0.00,,1.88
1461,1557157662,-0.06,0.00,0.00,0.00,,1.88
1462,1557157662,-0.06,0.00,0.00,0.00,,1.88
1463,1557157662,-0.06,0.00,0.00,0.00,,1.881464,1557157662,-0.06,0.00,0.00,0.00,,1.88
1465,1557157662,-0.06,0.00,0.00,0.00,,1.88
1466,1557157662,-0.06,0.00,0.00,0.00,,1.88
1467,1557157662,-0.06,0.00,0.00,0.00,,1.88
1468,1557157662,-0.06,0.00,0.00,0.00,,1.881469,1557157662,-0.06,0.00,0.00,0.00,,1.88
1470,1557157662,-0.06,0.00,0.00,0.00,,1.88
1471,1557157662,-0.06,0.00,0.00,0.00,,1.88
1472,1557157662,-0.06,0.00,0.00,0.00,,1.88
1473,1557157663,-0.06,0.00,0.00,0.00,,1.881474,1557157663,-0.06,0.00,0.00,0.00,,1.88
1475,1557157663,-0.06,0.00,0.00,0.00,,1.88
1476,1557157663,-0.06,0.00,0.00,0.00,,1.88
1477,1557157663,-0.06,0.00,0.00,0.00,,1.88
1478,1557157663,-0.06,0.00,0.00,0.00,,1.881479,1557157663,-0.06,0.00,0.00,0.00,,1.88
1480,1557157663,-0.06,0.00,0.00,0.00,,1.88
1481,1557157663,-0.06,0.00,0.00,0.00,,1.88
1482,1557157663,-0.06,0.00,0.00,0.00,,1.88
1483,1557157663,-0.06,0.00,0.00,0.00,,1.881484,1557157663,-0.06,0.00,0.00,0.00,,1.88
1485,1557157663,-0.06,0.00,0.00,0.00,,1.88
1486,1557157663,-0.06,0.00,0.00,0.00,,1.88
1487,1557157663,-0.06,0.00,0.00,0.00,,1.88
1488,1557157663,-0.06,0.00,0.00,0.00,,1.881489,1557157663,-0.06,0.00,0.00,0.00,,1.88
1490,1557157663,-0.06,0.00,0.00,0.00,,1.88
1491,1557157663,-0.06,0.00,0.00,0.00,,1.88
1492,1557157663,-0.06,0.00,0.00,0.00,,1.88
1493,1557157663,-0.06,0.00,0.00,0.00,,1.881494,1557157663,-0.06,0.00,0.00,0.00,,1.88
1495,1557157663,-0.06,0.00,0.00,0.00,,1.88
1496,1557157663,-0.06,0.00,0.00,0.00,,1.88
1497,1557157663,-0.06,0.00,0.00,0.00,,1.88
1498,1557157663,-0.06,0.00,0.00,0.00,,1.881499,1557157663,-0.06,0.00,0.00,0.00,,1.88
1500,1557157663,-0.06,0.00,0.00,0.00,,1.88
1501,1557157663,-0.06,0.00,0.00,0.00,,1.88
1502,1557157664,-0.06,0.00,0.00,0.00,,1.88
1503,1557157664,-0.06,0.00,0.00,0.00,,1.881504,1557157664,-0.06,0.00,0.00,0.00,,1.88
1505,1557157664,-0.06,0.00,0.00,0.00,,1.88
1506,1557157664,-0.06,0.00,0.00,0.00,,1.88
1507,1557157664,-0.06,0.00,0.00,0.00,,1.88
1508,1557157664,-0.06,0.00,0.00,0.00,,1.881509,1557157664,-0.06,0.00,0.00,0.00,,1.88
1510,1557157664,-0.06,0.00,0.00,0.00,,1.88
1511,1557157664,-0.06,0.00,0.00,0.00,,1.88
1512,1557157664,-0.06,0.00,0.00,0.00,,1.88
1513,1557157664,-0.06,0.00,0.00,0.00,,1.881514,1557157664,-0.06,0.00,0.00,0.00,,1.88
1515,1557157664,-0.06,0.00,0.00,0.00,,1.88
1516,1557157664,-0.06,0.00,0.00,0.00,,1.88
1517,1557157664,-0.06,0.00,0.00,0.00,,1.88
1518,1557157664,-0.06,0.00,0.00,0.00,,1.881519,1557157664,-0.06,0.00,0.00,0.00,,1.88
1520,1557157664,-0.06,0.00,0.00,0.00,,1.88
1521,1557157664,-0.06,0.00,0.00,0.00,,1.88
1522,1557157664,-0.06,0.00,0.00,0.00,,1.88
1523,1557157664,-0.06,0.00,0.00,0.00,,1.881524,1557157664,-0.06,0.00,0.00,0.00,,1.88
1525,1557157664,-0.06,0.00,0.00,0.00,,1.88
1526,1557157664,-0.06,0.00,0.00,0.00,,1.88
1527,1557157664,-0.06,0.00,0.00,0.00,,1.88
1528,1557157664,-0.06,0.00,0.00,0.00,,1.881529,1557157664,-0.06,0.00,0.00,0.00,,1.88
1530,1557157664,-0.06,0.00,0.00,0.00,,1.88
1531,1557157665,-0.06,0.00,0.00,0.00,,1.88
1532,1557157665,-0.06,0.00,0.00,0.00,,1.88
1533,1557157665,-0.06,0.00,0.00,0.00,,1.881534,1557157665,-0.06,0.00,0.00,0.00,,1.88
1535,1557157665,-0.06,0.00,0.00,0.00,,1.88
1536,1557157665,-0.06,0.00,0.00,0.00,,1.88
1537,1557157665,-0.06,0.00,0.00,0.00,,1.88
1538,1557157665,-0.06,0.00,0.00,0.00,,1.881539,1557157665,-0.06,0.00,0.00,0.00,,1.88
1540,1557157665,-0.06,0.00,0.00,0.00,,1.88
1541,1557157665,-0.06,0.00,0.00,0.00,,1.88
1542,1557157665,-0.06,0.00,0.00,0.00,,1.88
1543,1557157665,-0.06,0.00,0.00,0.00,,1.881544,1557157665,-0.06,0.00,0.00,0.00,,1.88
1545,1557157665,-0.06,0.00,0.00,0.00,,1.88
1546,1557157665,-0.06,0.00,0.00,0.00,,1.88
1547,1557157665,-0.06,0.00,0.00,0.00,,1.88
1548,1557157665,-0.06,0.00,0.00,0.00,,1.881549,1557157665,-0.06,0.00,0.00,0.00,,1.88
1550,1557157665,-0.06,0.00,0.00,0.00,,1.88
1551,1557157665,-0.06,0.00,0.00,0.00,,1.88
1552,1557157665,-0.06,0.00,0.00,0.00,,1.88
1553,1557157665,-0.06,0.00,0.00,0.00,,1.881554,1557157665,-0.06,0.00,0.00,0.00,,1.88
1555,1557157665,-0.06,0.00,0.00,0.00,,1.88
1556,1557157665,-0.06,0.00,0.00,0.00,,1.88
1557,1557157665,-0.06,0.00,0.00,0.00,,1.88
1558,1557157666,-0.06,0.00,0.00,0.00,,1.881559,1557157666,-0.06,0.00,0.00,0.00,,1.88
1560,1557157666,-0.06,0.00,0.00,0.00,,1.88
1561,1557157666,-0.06,0.00,0.00,0.00,,1.88
1562,1557157666,-0.06,0.00,0.00,0.00,,1.88
1563,1557157666,-0.06,0.00,0.00,0.00,,1.881564,1557157666,-0.06,0.00,0.00,0.00,,1.88
1565,1557157666,-0.06,0.00,0.00,0.00,,1.88
1566,1557157666,-0.06,0.00,0.00,0.00,,1.88
1567,1557157666,-0.06,0.00,0.00,0.00,,1.88
1568,1557157666,-0.06,0.00,0.00,0.00,,1.881569,1557157666,-0.06,0.00,0.00,0.00,,1.88
1570,1557157666,-0.06,0.00,0.00,0.00,,1.88
1571,1557157666,-0.06,0.00,0.00,0.00,,1.88
1572,1557157666,-0.06,0.00,0.00,0.00,,1.88
1573,1557157666,-0.06,0.00,0.00,0.00,,1.881574,1557157666,-0.06,0.00,0.00,0.00,,1.88
1575,1557157666,-0.06,0.00,0.00,0.00,,1.88
1576,1557157666,-0.06,0.00,0.00,0.00,,1.88
1577,1557157666,-0.06,0.00,0.00,0.00,,1.88
1578,1557157666,-0.06,0.00,0.00,0.00,,1.881579,1557157666,-0.06,0.00,0.00,0.00,,1.88
1580,1557157666,-0.06,0.00,0.00,0.00,,1.88
1581,1557157666,-0.06,0.00,0.00,0.00,,1.88
1582,1557157666,-0.06,0.00,0.00,0.00,,1.88
1583,1557157667,-0.06,0.00,0.00,0.00,,1.881584,1557157667,-0.06,0.00,0.00,0.00,,1.88
1585,1557157667,-0.06,0.00,0.00,0.00,,1.88
1586,1557157667,-0.06,0.00,0.00,0.00,,1.88
1587,1557157667,-0.06,0.00,0.00,0.00,,1.88
1588,1557157667,-0.06,0.00,0.00,0.00,,1.881589,1557157667,-0.06,0.00,0.00,0.00,,1.88
1590,1557157667,-0.06,0.00,0.00,0.00,,1.88
1591,1557157667,-0.06,0.00,0.00,0.00,,1.88
1592,1557157667,-0.06,0.00,0.00,0.00,,1.88
1593,1557157667,-0.06,0.00,0.00,0.00,,1.881594,1557157667,-0.06,0.00,0.00,0.00,,1.88
1595,1557157667,-0.06,0.00,0.00,0.00,,1.88
1596,1557157667,-0.06,0.00,0.00,0.00,,1.88
1597,1557157667,-0.06,0.00,0.00,0.00,,1.88
1598,1557157667,-0.06,0.00,0.00,0.00,,1.881599,1557157667,-0.06,0.00,0.00,0.00,,1.88
1600,1557157667,-0.06,0.00,0.00,0.00,,1.88
1601,1557157667,-0.06,0.00,0.00,0.00,,1.88
1602,1557157667,-0.06,0.00,0.00,0.00,,1.88
1603,1557157667,-0.06,0.00,0.00,0.00,,1.881604,1557157667,-0.06,0.00,0.00,0.00,,1.88
1605,1557157667,-0.06,0.00,0.00,0.00,,1.88
1606,1557157667,-0.06,0.00,0.00,0.00,,1.88
1607,1557157667,-0.06,0.00,0.00,0.00,,1.88
1608,1557157667,-0.06,0.00,0.00,0.00,,1.881609,1557157667,-0.06,0.00,0.00,0.00,,1.88
1610,1557157667,-0.06,0.00,0.00,0.00,,1.88
1611,1557157667,-0.06,0.00,0.00,0.00,,1.88
1612,1557157668,-0.06,0.00,0.00,0.00,,1.88
1613,1557157668,-0.06,0.00,0.00,0.00,,1.881614,1557157668,-0.06,0.00,0.00,0.00,,1.88
1615,1557157668,-0.06,0.00,0.00,0.00,,1.88
1616,1557157668,-0.06,0.00,0.00,0.00,,1.88
1617,1557157668,-0.06,0.00,0.00,0.00,,1.88
1618,1557157668,-0.06,0.00,0.00,0.00,,1.881619,1557157668,-0.06,0.00,0.00,0.00,,1.88
1620,1557157668,-0.06,0.00,0.00,0.00,,1.88
1621,1557157668,-0.06,0.00,0.00,0.00,,1.88
1622,1557157668,-0.06,0.00,0.00,0.00,,1.88
1623,1557157668,-0.06,0.00,0.00,0.00,,1.881624,1557157668,-0.06,0.00,0.00,0.00,,1.88
1625,1557157668,-0.06,0.00,0.00,0.00,,1.88
1626,1557157668,-0.06,0.00,0.00,0.00,,1.88
1627,1557157668,-0.06,0.00,0.00,0.00,,1.88
1628,1557157668,-0.06,0.00,0.00,0.00,,1.881629,1557157668,-0.06,0.00,0.00,0.00,,1.88
1630,1557157668,-0.06,0.00,0.00,0.00,,1.88
1631,1557157668,-0.06,0.00,0.00,0.00,,1.88
1632,1557157668,-0.06,0.00,0.00,0.00,,1.88
1633,1557157668,-0.06,0.00,0.00,0.00,,1.881634,1557157668,-0.06,0.00,0.00,0.00,,1.88
1635,1557157668,-0.06,0.00,0.00,0.00,,1.88
1636,1557157668,-0.06,0.00,0.00,0.00,,1.88
1637,1557157668,-0.06,0.00,0.00,0.00,,1.88
1638,1557157668,-0.06,0.00,0.00,0.00,,1.881639,1557157668,-0.06,0.00,0.00,0.00,,1.88
1640,1557157669,-0.06,0.00,0.00,0.00,,1.88
1641,1557157669,-0.06,0.00,0.00,0.00,,1.88
1642,1557157669,-0.06,0.00,0.00,0.00,,1.88
1643,1557157669,-0.06,0.00,0.00,0.00,,1.881644,1557157669,-0.06,0.00,0.00,0.00,,1.88
1645,1557157669,-0.06,0.00,0.00,0.00,,1.88
1646,1557157669,-0.06,0.00,0.00,0.00,,1.88
1647,1557157669,-0.06,0.00,0.00,0.00,,1.88
1648,1557157669,-0.06,0.00,0.00,0.00,,1.881649,1557157669,-0.06,0.00,0.00,0.00,,1.88
1650,1557157669,-0.06,0.00,0.00,0.00,,1.88
1651,1557157669,-0.06,0.00,0.00,0.00,,1.88
1652,1557157669,-0.06,0.00,0.00,0.00,,1.88
1653,1557157669,-0.06,0.00,0.00,0.00,,1.881654,1557157669,-0.06,0.00,0.00,0.00,,1.88
1655,1557157669,-0.06,0.00,0.00,0.00,,1.88
1656,1557157669,-0.06,0.00,0.00,0.00,,1.88
1657,1557157669,-0.06,0.00,0.00,0.00,,1.88
1658,1557157669,-0.06,0.00,0.00,0.00,,1.881659,1557157669,-0.06,0.00,0.00,0.00,,1.88
1660,1557157669,-0.06,0.00,0.00,0.00,,1.88
1661,1557157669,-0.06,0.00,0.00,0.00,,1.88
1662,1557157669,-0.06,0.00,0.00,0.00,,1.88
1663,1557157669,-0.06,0.00,0.00,0.00,,1.881664,1557157669,-0.06,0.00,0.00,0.00,,1.88
1665,1557157669,-0.06,0.00,0.00,0.00,,1.88
1666,1557157669,-0.06,0.00,0.00,0.00,,1.88
1667,1557157669,-0.06,0.00,0.00,0.00,,1.88
1668,1557157669,-0.06,0.00,0.00,0.00,,1.881669,1557157670,-0.06,0.00,0.00,0.00,,1.88
1670,1557157670,-0.06,0.00,0.00,0.00,,1.88
1671,1557157670,-0.06,0.00,0.00,0.00,,1.88
1672,1557157670,-0.06,0.00,0.00,0.00,,1.88
1673,1557157670,-0.06,0.00,0.00,0.00,,1.881674,1557157670,-0.06,0.00,0.00,0.00,,1.88
1675,1557157670,-0.06,0.00,0.00,0.00,,1.88
1676,1557157670,-0.06,0.00,0.00,0.00,,1.88
1677,1557157670,-0.06,0.00,0.00,0.00,,1.88
1678,1557157670,-0.06,0.00,0.00,0.00,,1.881679,1557157670,-0.06,0.00,0.00,0.00,,1.88
1680,1557157670,-0.06,0.00,0.00,0.00,,1.88
1681,1557157670,-0.06,0.00,0.00,0.00,,1.88
1682,1557157670,-0.06,0.00,0.00,0.00,,1.88
1683,1557157670,-0.06,0.00,0.00,0.00,,1.881684,1557157670,-0.06,0.00,0.00,0.00,,1.88
1685,1557157670,-0.06,0.00,0.00,0.00,,1.88
1686,1557157670,-0.06,0.00,0.00,0.00,,1.88
1687,1557157670,-0.06,0.00,0.00,0.00,,1.88
1688,1557157670,-0.06,0.00,0.00,0.00,,1.881689,1557157670,-0.06,0.00,0.00,0.00,,1.88
1690,1557157670,-0.06,0.00,0.00,0.00,,1.88
1691,1557157670,-0.06,0.00,0.00,0.00,,1.88
1692,1557157670,-0.06,0.00,0.00,0.00,,1.88
1693,1557157670,-0.06,0.00,0.00,0.00,,1.881694,1557157670,-0.06,0.00,0.00,0.00,,1.88
1695,1557157670,-0.06,0.00,0.00,0.00,,1.88
1696,1557157670,-0.06,0.00,0.00,0.00,,1.88
1697,1557157670,-0.06,0.00,0.00,0.00,,1.88
1698,1557157671,-0.06,0.00,0.00,0.00,,1.881699,1557157671,-0.06,0.00,0.00,0.00,,1.88
1700,1557157671,-0.06,0.00,0.00,0.00,,1.88
1701,1557157671,-0.06,0.00,0.00,0.00,,1.88
1702,1557157671,-0.06,0.00,0.00,0.00,,1.88
1703,1557157671,-0.06,0.00,0.00,0.00,,1.881704,1557157671,-0.06,0.00,0.00,0.00,,1.88
1705,1557157671,-0.06,0.00,0.00,0.00,,1.88
1706,1557157671,-0.06,0.00,0.00,0.00,,1.88
1707,1557157671,-0.06,0.00,0.00,0.00,,1.88
1708,1557157671,-0.06,0.00,0.00,0.00,,1.881709,1557157671,-0.06,0.00,0.00,0.00,,1.88
1710,1557157671,-0.06,0.00,0.00,0.00,,1.88
1711,1557157671,-0.06,0.00,0.00,0.00,,1.88
1712,1557157671,-0.06,0.00,0.00,0.00,,1.88
1713,1557157671,-0.06,0.00,0.00,0.00,,1.881714,1557157671,-0.06,0.00,0.00,0.00,,1.88
1715,1557157671,-0.06,0.00,0.00,0.00,,1.88
1716,1557157671,-0.06,0.00,0.00,0.00,,1.88
1717,1557157671,-0.06,0.00,0.00,0.00,,1.88
1718,1557157671,-0.06,0.00,0.00,0.00,,1.881719,1557157671,-0.06,0.00,0.00,0.00,,1.88
1720,1557157671,-0.06,0.00,0.00,0.00,,1.88
1721,1557157671,-0.06,0.00,0.00,0.00,,1.88
1722,1557157671,-0.06,0.00,0.00,0.00,,1.88
1723,1557157671,-0.06,0.00,0.00,0.00,,1.881724,1557157671,-0.06,0.00,0.00,0.00,,1.88
1725,1557157671,-0.06,0.00,0.00,0.00,,1.88
1726,1557157671,-0.06,0.00,0.00,0.00,,1.88
1727,1557157672,-0.06,0.00,0.00,0.00,,1.88
1728,1557157672,-0.06,0.00,0.00,0.00,,1.881729,1557157672,-0.06,0.00,0.00,0.00,,1.88
1730,1557157672,-0.06,0.00,0.00,0.00,,1.88
1731,1557157672,-0.06,0.00,0.00,0.00,,1.88
1732,1557157672,-0.06,0.00,0.00,0.00,,1.88
1733,1557157672,-0.06,0.00,0.00,0.00,,1.881734,1557157672,-0.06,0.00,0.00,0.00,,1.88
1735,1557157672,-0.06,0.00,0.00,0.00,,1.88
1736,1557157672,-0.06,0.00,0.00,0.00,,1.88
1737,1557157672,-0.06,0.00,0.00,0.00,,1.88
1738,1557157672,-0.06,0.00,0.00,0.00,,1.881739,1557157672,-0.06,0.00,0.00,0.00,,1.88
1740,1557157672,-0.06,0.00,0.00,0.00,,1.88
1741,1557157672,-0.06,0.00,0.00,0.00,,1.88
1742,1557157672,-0.06,0.00,0.00,0.00,,1.88
1743,1557157672,-0.06,0.00,0.00,0.00,,1.881744,1557157672,-0.06,0.00,0.00,0.00,,1.88
1745,1557157672,-0.06,0.00,0.00,0.00,,1.88
1746,1557157672,-0.06,0.00,0.00,0.00,,1.88
1747,1557157672,-0.06,0.00,0.00,0.00,,1.88
1748,1557157672,-0.06,0.00,0.00,0.00,,1.881749,1557157672,-0.06,0.00,0.00,0.00,,1.88
1750,1557157672,-0.06,0.00,0.00,0.00,,1.88
1751,1557157672,-0.06,0.00,0.00,0.00,,1.88
1752,1557157672,-0.06,0.00,0.00,0.00,,1.88
1753,1557157672,-0.06,0.00,0.00,0.00,,1.881754,1557157672,-0.06,0.00,0.00,0.00,,1.88
1755,1557157672,-0.06,0.00,0.00,0.00,,1.88
1756,1557157673,-0.06,0.00,0.00,0.00,,1.88
1757,1557157673,-0.06,0.00,0.00,0.00,,1.88
1758,1557157673,-0.06,0.00,0.00,0.00,,1.881759,1557157673,-0.06,0.00,0.00,0.00,,1.88
1760,1557157673,-0.06,0.00,0.00,0.00,,1.88
1761,1557157673,-0.06,0.00,0.00,0.00,,1.88
1762,1557157673,-0.06,0.00,0.00,0.00,,1.88
1763,1557157673,-0.06,0.00,0.00,0.00,,1.881764,1557157673,-0.06,0.00,0.00,0.00,,1.88
1765,1557157673,-0.06,0.00,0.00,0.00,,1.88
1766,1557157673,-0.06,0.00,0.00,0.00,,1.88
1767,1557157673,-0.06,0.00,0.00,0.00,,1.88
1768,1557157673,-0.06,0.00,0.00,0.00,,1.881769,1557157673,-0.06,0.00,0.00,0.00,,1.88
1770,1557157673,-0.06,0.00,0.00,0.00,,1.88
1771,1557157673,-0.06,0.00,0.00,0.00,,1.88
1772,1557157673,-0.06,0.00,0.00,0.00,,1.88
1773,1557157673,-0.06,0.00,0.00,0.00,,1.881774,1557157673,-0.06,0.00,0.00,0.00,,1.88
1775,1557157673,-0.06,0.00,0.00,0.00,,1.88
1776,1557157673,-0.06,0.00,0.00,0.00,,1.88
1777,1557157673,-0.06,0.00,0.00,0.00,,1.88
1778,1557157673,-0.06,0.00,0.00,0.00,,1.881779,1557157673,-0.06,0.00,0.00,0.00,,1.88
1780,1557157673,-0.06,0.00,0.00,0.00,,1.88
1781,1557157673,-0.06,0.00,0.00,0.00,,1.88
1782,1557157673,-0.06,0.00,0.00,0.00,,1.88
1783,1557157673,-0.06,0.00,0.00,0.00,,1.881784,1557157674,-0.06,0.00,0.00,0.00,,1.88
1785,1557157674,-0.06,0.00,0.00,0.00,,1.88
1786,1557157674,-0.06,0.00,0.00,0.00,,1.88
1787,1557157674,-0.06,0.00,0.00,0.00,,1.88
1788,1557157674,-0.06,0.00,0.00,0.00,,1.881789,1557157674,-0.06,0.00,0.00,0.00,,1.88
1790,1557157674,-0.06,0.00,0.00,0.00,,1.88
1791,1557157674,-0.06,0.00,0.00,0.00,,1.88
1792,1557157674,-0.06,0.00,0.00,0.00,,1.88
1793,1557157674,-0.06,0.00,0.00,0.00,,1.881794,1557157674,-0.06,0.00,0.00,0.00,,1.88
1795,1557157674,-0.06,0.00,0.00,0.00,,1.88
1796,1557157674,-0.06,0.00,0.00,0.00,,1.88
1797,1557157674,-0.06,0.00,0.00,0.00,,1.88
1798,1557157674,-0.06,0.00,0.00,0.00,,1.881799,1557157674,-0.06,0.00,0.00,0.00,,1.88
1800,1557157674,-0.06,0.00,0.00,0.00,,1.88
1801,1557157674,-0.06,0.00,0.00,0.00,,1.88
1802,1557157674,-0.06,0.00,0.00,0.00,,1.88
1803,1557157674,-0.06,0.00,0.00,0.00,,1.881804,1557157674,-0.06,0.00,0.00,0.00,,1.88
1805,1557157674,-0.06,0.00,0.00,0.00,,1.88
1806,1557157674,-0.06,0.00,0.00,0.00,,1.88
1807,1557157674,-0.06,0.00,0.00,0.00,,1.88
1808,1557157674,-0.06,0.00,0.00,0.00,,1.881809,1557157674,-0.06,0.00,0.00,0.00,,1.88
1810,1557157674,-0.06,0.00,0.00,0.00,,1.88
1811,1557157674,-0.06,0.00,0.00,0.00,,1.88
1812,1557157674,-0.06,0.00,0.00,0.00,,1.88
1813,1557157675,-0.06,0.00,0.00,0.00,,1.881814,1557157675,-0.06,0.00,0.00,0.00,,1.88
1815,1557157675,-0.06,0.00,0.00,0.00,,1.88
1816,1557157675,-0.06,0.00,0.00,0.00,,1.88
1817,1557157675,-0.06,0.00,0.00,0.00,,1.88
1818,1557157675,-0.06,0.00,0.00,0.00,,1.881819,1557157675,-0.06,0.00,0.00,0.00,,1.88
1820,1557157675,-0.06,0.00,0.00,0.00,,1.88
1821,1557157675,-0.06,0.00,0.00,0.00,,1.88
1822,1557157675,-0.06,0.00,0.00,0.00,,1.88
1823,1557157675,-0.06,0.00,0.00,0.00,,1.881824,1557157675,-0.06,0.00,0.00,0.00,,1.88
1825,1557157675,-0.06,0.00,0.00,0.00,,1.88
1826,1557157675,-0.06,0.00,0.00,0.00,,1.88
1827,1557157675,-0.06,0.00,0.00,0.00,,1.88
1828,1557157675,-0.06,0.00,0.00,0.00,,1.881829,1557157675,-0.06,0.00,0.00,0.00,,1.88
1830,1557157675,-0.06,0.00,0.00,0.00,,1.88
1831,1557157675,-0.06,0.00,0.00,0.00,,1.88
1832,1557157675,-0.06,0.00,0.00,0.00,,1.88
1833,1557157675,-0.06,0.00,0.00,0.00,,1.881834,1557157675,-0.06,0.00,0.00,0.00,,1.88
1835,1557157675,-0.06,0.00,0.00,0.00,,1.88
1836,1557157675,-0.06,0.00,0.00,0.00,,1.88
1837,1557157675,-0.06,0.00,0.00,0.00,,1.88
1838,1557157675,-0.06,0.00,0.00,0.00,,1.881839,1557157675,-0.06,0.00,0.00,0.00,,1.88
1840,1557157675,-0.06,0.00,0.00,0.00,,1.88
1841,1557157675,-0.06,0.00,0.00,0.00,,1.88
1842,1557157676,-0.06,0.00,0.00,0.00,,1.88
1843,1557157676,-0.06,0.00,0.00,0.00,,1.881844,1557157676,-0.06,0.00,0.00,0.00,,1.88
1845,1557157676,-0.06,0.00,0.00,0.00,,1.88
1846,1557157676,-0.06,0.00,0.00,0.00,,1.88
1847,1557157676,-0.06,0.00,0.00,0.00,,1.88
1848,1557157676,-0.06,0.00,0.00,0.00,,1.881849,1557157676,-0.06,0.00,0.00,0.00,,1.88
1850,1557157676,-0.06,0.00,0.00,0.00,,1.88
1851,1557157676,-0.06,0.00,0.00,0.00,,1.88
1852,1557157676,-0.06,0.00,0.00,0.00,,1.88
1853,1557157676,-0.06,0.00,0.00,0.00,,1.881854,1557157676,-0.06,0.00,0.00,0.00,,1.88
1855,1557157676,-0.06,0.00,0.00,0.00,,1.88
1856,1557157676,-0.06,0.00,0.00,0.00,,1.88
1857,1557157676,-0.06,0.00,0.00,0.00,,1.88
1858,1557157676,-0.06,0.00,0.00,0.00,,1.881859,1557157676,-0.06,0.00,0.00,0.00,,1.88
1860,1557157676,-0.06,0.00,0.00,0.00,,1.88
1861,1557157676,-0.06,0.00,0.00,0.00,,1.88
1862,1557157676,-0.06,0.00,0.00,0.00,,1.88
1863,1557157676,-0.06,0.00,0.00,0.00,,1.881864,1557157676,-0.06,0.00,0.00,0.00,,1.88
1865,1557157676,-0.06,0.00,0.00,0.00,,1.88
1866,1557157676,-0.06,0.00,0.00,0.00,,1.88
1867,1557157676,-0.06,0.00,0.00,0.00,,1.88
1868,1557157676,-0.06,0.00,0.00,0.00,,1.881869,1557157676,-0.06,0.00,0.00,0.00,,1.88
1870,1557157677,-0.06,0.00,0.00,0.00,,1.88
1871,1557157677,-0.06,0.00,0.00,0.00,,1.88
1872,1557157677,-0.06,0.00,0.00,0.00,,1.88
1873,1557157677,-0.06,0.00,0.00,0.00,,1.881874,1557157677,-0.06,0.00,0.00,0.00,,1.88
1875,1557157677,-0.06,0.00,0.00,0.00,,1.88
1876,1557157677,-0.06,0.00,0.00,0.00,,1.88
1877,1557157677,-0.06,0.00,0.00,0.00,,1.88
1878,1557157677,-0.06,0.00,0.00,0.00,,1.881879,1557157677,-0.06,0.00,0.00,0.00,,1.88
1880,1557157677,-0.06,0.00,0.00,0.00,,1.88
1881,1557157677,-0.06,0.00,0.00,0.00,,1.88
1882,1557157677,-0.06,0.00,0.00,0.00,,1.88
1883,1557157677,-0.06,0.00,0.00,0.00,,1.881884,1557157677,-0.06,0.00,0.00,0.00,,1.88
1885,1557157677,-0.06,0.00,0.00,0.00,,1.88
1886,1557157677,-0.06,0.00,0.00,0.00,,1.88
1887,1557157677,-0.06,0.00,0.00,0.00,,1.88
1888,1557157677,-0.06,0.00,0.00,0.00,,1.881889,1557157677,-0.06,0.00,0.00,0.00,,1.88
1890,1557157677,-0.06,0.00,0.00,0.00,,1.88
1891,1557157677,-0.06,0.00,0.00,0.00,,1.88
1892,1557157677,-0.06,0.00,0.00,0.00,,1.88
1893,1557157677,-0.06,0.00,0.00,0.00,,1.881894,1557157677,-0.06,0.00,0.00,0.00,,1.88
1895,1557157677,-0.06,0.00,0.00,0.00,,1.88
1896,1557157677,-0.06,0.00,0.00,0.00,,1.88
1897,1557157677,-0.06,0.00,0.00,0.00,,1.88
1898,1557157677,-0.06,0.00,0.00,0.00,,1.881899,1557157678,-0.06,0.00,0.00,0.00,,1.88
1900,1557157678,-0.06,0.00,0.00,0.00,,1.88
1901,1557157678,-0.06,0.00,0.00,0.00,,1.88
1902,1557157678,-0.06,0.00,0.00,0.00,,1.88
1903,1557157678,-0.06,0.00,0.00,0.00,,1.881904,1557157678,-0.06,0.00,0.00,0.00,,1.88
1905,1557157678,-0.06,0.00,0.00,0.00,,1.88
1906,1557157678,-0.06,0.00,0.00,0.00,,1.88
1907,1557157678,-0.06,0.00,0.00,0.00,,1.88
1908,1557157678,-0.06,0.00,0.00,0.00,,1.881909,1557157678,-0.06,0.00,0.00,0.00,,1.88
1910,1557157678,-0.06,0.00,0.00,0.00,,1.88
1911,1557157678,-0.06,0.00,0.00,0.00,,1.88
1912,1557157678,-0.06,0.00,0.00,0.00,,1.88
1913,1557157678,-0.06,0.00,0.00,0.00,,1.881914,1557157678,-0.06,0.00,0.00,0.00,,1.88
1915,1557157678,-0.06,0.00,0.00,0.00,,1.88
1916,1557157678,-0.06,0.00,0.00,0.00,,1.88
1917,1557157678,-0.06,0.00,0.00,0.00,,1.88
1918,1557157678,-0.06,0.00,0.00,0.00,,1.881919,1557157678,-0.06,0.00,0.00,0.00,,1.88
1920,1557157678,-0.06,0.00,0.00,0.00,,1.88
1921,1557157678,-0.06,0.00,0.00,0.00,,1.88
1922,1557157678,-0.06,0.00,0.00,0.00,,1.88
1923,1557157678,-0.06,0.00,0.00,0.00,,1.881924,1557157678,-0.06,0.00,0.00,0.00,,1.88
1925,1557157678,-0.06,0.00,0.00,0.00,,1.88
1926,1557157678,-0.06,0.00,0.00,0.00,,1.88
1927,1557157678,-0.06,0.00,0.00,0.00,,1.88
1928,1557157679,-0.06,0.00,0.00,0.00,,1.881929,1557157679,-0.06,0.00,0.00,0.00,,1.88
1930,1557157679,-0.06,0.00,0.00,0.00,,1.88
1931,1557157679,-0.06,0.00,0.00,0.00,,1.88
1932,1557157679,-0.06,0.00,0.00,0.00,,1.88
1933,1557157679,-0.06,0.00,0.00,0.00,,1.881934,1557157679,-0.06,0.00,0.00,0.00,,1.88
1935,1557157679,-0.06,0.00,0.00,0.00,,1.88
1936,1557157679,-0.06,0.00,0.00,0.00,,1.88
1937,1557157679,-0.06,0.00,0.00,0.00,,1.88
1938,1557157679,-0.06,0.00,0.00,0.00,,1.881939,1557157679,-0.06,0.00,0.00,0.00,,1.88
1940,1557157679,-0.06,0.00,0.00,0.00,,1.88
1941,1557157679,-0.06,0.00,0.00,0.00,,1.88
1942,1557157679,-0.06,0.00,0.00,0.00,,1.88
1943,1557157679,-0.06,0.00,0.00,0.00,,1.881944,1557157679,-0.06,0.00,0.00,0.00,,1.88
1945,1557157679,-0.06,0.00,0.00,0.00,,1.88
1946,1557157679,-0.06,0.00,0.00,0.00,,1.88
1947,1557157679,-0.06,0.00,0.00,0.00,,1.88
1948,1557157679,-0.06,0.00,0.00,0.00,,1.881949,1557157679,-0.06,0.00,0.00,0.00,,1.88
1950,1557157679,-0.06,0.00,0.00,0.00,,1.88
1951,1557157679,-0.06,0.00,0.00,0.00,,1.88
1952,1557157679,-0.06,0.00,0.00,0.00,,1.88
1953,1557157679,-0.06,0.00,0.00,0.00,,1.881954,1557157679,-0.06,0.00,0.00,0.00,,1.88
1955,1557157679,-0.06,0.00,0.00,0.00,,1.88
1956,1557157680,-0.06,0.00,0.00,0.00,,1.88
1957,1557157680,-0.06,0.00,0.00,0.00,,1.88
1958,1557157680,-0.06,0.00,0.00,0.00,,1.881959,1557157680,-0.06,0.00,0.00,0.00,,1.88
1960,1557157680,-0.06,0.00,0.00,0.00,,1.88
1961,1557157680,-0.06,0.00,0.00,0.00,,1.88
1962,1557157680,-0.06,0.00,0.00,0.00,,1.88
1963,1557157680,-0.06,0.00,0.00,0.00,,1.881964,1557157680,-0.06,0.00,0.00,0.00,,1.88
1965,1557157680,-0.06,0.00,0.00,0.00,,1.88
1966,1557157680,-0.06,0.00,0.00,0.00,,1.88
1967,1557157680,-0.06,0.00,0.00,0.00,,1.88
1968,1557157680,-0.06,0.00,0.00,0.00,,1.881969,1557157680,-0.06,0.00,0.00,0.00,,1.88
1970,1557157680,-0.06,0.00,0.00,0.00,,1.88
1971,1557157680,-0.06,0.00,0.00,0.00,,1.88
1972,1557157680,-0.06,0.00,0.00,0.00,,1.88
1973,1557157680,-0.06,0.00,0.00,0.00,,1.881974,1557157680,-0.06,0.00,0.00,0.00,,1.88
1975,1557157680,-0.06,0.00,0.00,0.00,,1.88
1976,1557157680,-0.06,0.00,0.00,0.00,,1.88
1977,1557157680,-0.06,0.00,0.00,0.00,,1.88
1978,1557157680,-0.06,0.00,0.00,0.00,,1.881979,1557157680,-0.06,0.00,0.00,0.00,,1.88
1980,1557157680,-0.06,0.00,0.00,0.00,,1.88
1981,1557157680,-0.06,0.00,0.00,0.00,,1.88
1982,1557157680,-0.06,0.00,0.00,0.00,,1.88
1983,1557157680,-0.06,0.00,0.00,0.00,,1.881984,1557157680,-0.06,0.00,0.00,0.00,,1.88
1985,1557157681,-0.06,0.00,0.00,0.00,,1.88
1986,1557157681,-0.06,0.00,0.00,0.00,,1.88
1987,1557157681,-0.06,0.00,0.00,0.00,,1.88
1988,1557157681,-0.06,0.00,0.00,0.00,,1.881989,1557157681,-0.06,0.00,0.00,0.00,,1.88
1990,1557157681,-0.06,0.00,0.00,0.00,,1.88
1991,1557157681,-0.06,0.00,0.00,0.00,,1.88
1992,1557157681,-0.06,0.00,0.00,0.00,,1.88
1993,1557157681,-0.06,0.00,0.00,0.00,,1.881994,1557157681,-0.06,0.00,0.00,0.00,,1.88
1995,1557157681,-0.06,0.00,0.00,0.00,,1.88
1996,1557157681,-0.06,0.00,0.00,0.00,,1.88
1997,1557157681,-0.06,0.00,0.00,0.00,,1.88
1998,1557157681,-0.06,0.00,0.00,0.00,,1.881999,1557157681,-0.06,0.00,0.00,0.00,,1.88
2000,1557157681,-0.06,0.00,0.00,0.00,,1.88
2001,1557157681,-0.06,0.00,0.00,0.00,ON,1.88
2002,1557157681,-0.06,0.00,0.00,0.00,,1.882003,1557157681,-0.06,0.00,0.00,0.00,,1.88
2004,1557157681,-0.06,0.00,0.00,0.00,,1.88
2005,1557157681,-0.06,0.00,0.00,0.00,,1.88
2006,1557157681,-0.06,0.00,0.00,0.00,,1.88
2007,1557157681,-0.06,0.00,0.00,0.00,,1.882008,1557157681,-0.06,0.00,0.00,0.00,,1.88
2009,1557157681,-0.06,0.00,0.00,0.00,,1.88
2010,1557157681,-0.06,0.00,0.00,0.00,,1.88
2011,1557157681,-0.06,0.00,0.00,0.00,,1.88
2012,1557157681,-0.06,0.00,0.00,0.00,,1.882013,1557157681,-0.06,0.00,0.00,0.00,,1.88
2014,1557157682,-0.06,0.00,0.00,0.00,,1.88
2015,1557157682,-0.06,0.00,0.00,0.00,,1.88
2016,1557157682,-0.06,0.00,0.00,0.00,,1.88
2017,1557157682,-0.06,0.00,0.00,0.00,,1.882018,1557157682,-0.06,0.00,0.00,0.00,,1.88
2019,1557157682,-0.06,0.00,0.00,0.00,,1.88
2020,1557157682,-0.06,0.00,0.00,0.00,,1.88
2021,1557157682,-0.06,0.00,0.00,0.00,,1.88
2022,1557157682,-0.06,0.00,0.00,0.00,,1.882023,1557157682,-0.06,0.00,0.00,0.00,,1.88
2024,1557157682,-0.06,0.00,0.00,0.00,,1.88
2025,1557157682,-0.06,0.00,0.00,0.00,,1.88
2026,1557157682,-0.06,0.00,0.00,0.00,,1.88
2027,1557157682,-0.06,0.00,0.00,0.00,,1.882028,1557157682,-0.06,0.00,0.00,0.00,,1.88
2029,1557157682,-0.06,0.00,0.00,0.00,,1.88
2030,1557157682,-0.06,0.00,0.00,0.00,,1.88
2031,1557157682,-0.06,0.00,0.00,0.00,,1.88
2032,1557157682,-0.06,0.00,0.00,0.00,,1.882033,1557157682,-0.06,0.00,0.00,0.00,,1.88
2034,1557157682,-0.06,0.00,0.00,0.00,,1.88
2035,1557157682,-0.06,0.00,0.00,0.00,,1.88
2036,1557157682,-0.06,0.00,0.00,0.00,,1.88
2037,1557157682,-0.06,0.00,0.00,0.00,,1.882038,1557157682,-0.06,0.00,0.00,0.00,,1.88
2039,1557157682,-0.06,0.00,0.00,0.00,,1.88
2040,1557157682,-0.06,0.00,0.00,0.00,,1.88
2041,1557157682,-0.06,0.00,0.00,0.00,,1.88
2042,1557157682,-0.06,0.00,0.00,0.00,,1.882043,1557157683,-0.06,0.00,0.00,0.00,,1.88
2044,1557157683,-0.06,0.00,0.00,0.00,,1.88
2045,1557157683,-0.06,0.00,0.00,0.00,,1.88
2046,1557157683,-0.06,0.00,0.00,0.00,,1.88
2047,1557157683,-0.06,0.00,0.00,0.00,,1.882048,1557157683,-0.06,0.00,0.00,0.00,,1.88
2049,1557157683,-0.06,0.00,0.00,0.00,,1.88
2050,1557157683,-0.06,0.00,0.00,0.00,,1.88
2051,1557157683,-0.06,0.00,0.00,0.00,,1.88
2052,1557157683,-0.06,0.00,0.00,0.00,,1.882053,1557157683,-0.06,0.00,0.00,0.00,,1.88
2054,1557157683,-0.06,0.00,0.00,0.00,,1.88
2055,1557157683,-0.06,0.00,0.00,0.00,,1.88
2056,1557157683,-0.06,0.00,0.00,0.00,,1.88
2057,1557157683,-0.06,0.00,0.00,0.00,,1.882058,1557157683,-0.06,0.00,0.00,0.00,,1.88
2059,1557157683,-0.06,0.00,0.00,0.00,,1.88
2060,1557157683,-0.06,0.00,0.00,0.00,,1.88
2061,1557157683,-0.06,0.00,0.00,0.00,,1.88
2062,1557157683,-0.06,0.00,0.00,0.00,,1.882063,1557157683,-0.06,0.00,0.00,0.00,,1.88
2064,1557157683,-0.06,0.00,0.00,0.00,,1.88
2065,1557157683,-0.06,0.00,0.00,0.00,,1.88
2066,1557157683,-0.06,0.00,0.00,0.00,,1.88
2067,1557157683,-0.06,0.00,0.00,0.00,,1.882068,1557157683,-0.06,0.00,0.00,0.00,,1.88
2069,1557157683,-0.06,0.00,0.00,0.00,,1.88
2070,1557157683,-0.06,0.00,0.00,0.00,,1.88
2071,1557157683,-0.06,0.00,0.00,0.00,,1.88
2072,1557157684,-0.06,0.00,0.00,0.00,,1.882073,1557157684,-0.06,0.00,0.00,0.00,,1.88
2074,1557157684,-0.06,0.00,0.00,0.00,,1.88
2075,1557157684,-0.06,0.00,0.00,0.00,,1.88
2076,1557157684,-0.06,0.00,0.00,0.00,,1.88
2077,1557157684,-0.06,0.00,0.00,0.00,,1.882078,1557157684,-0.06,0.00,0.00,0.00,,1.88
2079,1557157684,-0.06,0.00,0.00,0.00,,1.88
2080,1557157684,-0.06,0.00,0.00,0.00,,1.88
2081,1557157684,-0.06,0.00,0.00,0.00,,1.88
2082,1557157684,-0.06,0.00,0.00,0.00,,1.882083,1557157684,-0.06,0.00,0.00,0.00,,1.88
2084,1557157684,-0.06,0.00,0.00,0.00,,1.88
2085,1557157684,-0.06,0.00,0.00,0.00,,1.88
2086,1557157684,-0.06,0.00,0.00,0.00,,1.88
2087,1557157684,-0.06,0.00,0.00,0.00,,1.882088,1557157684,-0.06,0.00,0.00,0.00,,1.88
2089,1557157684,-0.06,0.00,0.00,0.00,,1.88
2090,1557157684,-0.06,0.00,0.00,0.00,,1.88
2091,1557157684,-0.06,0.00,0.00,0.00,,1.88
2092,1557157684,-0.06,0.00,0.00,0.00,,1.882093,1557157684,-0.06,0.00,0.00,0.00,,1.88
2094,1557157684,-0.06,0.00,0.00,0.00,,1.88
2095,1557157684,-0.06,0.00,0.00,0.00,,1.88
2096,1557157684,-0.06,0.00,0.00,0.00,,1.88
2097,1557157684,-0.06,0.00,0.00,0.00,,1.882098,1557157684,-0.06,0.00,0.00,0.00,,1.88
2099,1557157684,-0.06,0.00,0.00,0.00,,1.88
2100,1557157685,-0.06,0.00,0.00,0.00,,1.88
2101,1557157685,-0.06,0.00,0.00,0.00,,1.88
2102,1557157685,-0.06,0.00,0.00,0.00,,1.882103,1557157685,-0.06,0.00,0.00,0.00,,1.88
2104,1557157685,-0.06,0.00,0.00,0.00,,1.88
2105,1557157685,-0.06,0.00,0.00,0.00,,1.88
2106,1557157685,-0.06,0.00,0.00,0.00,,1.88
2107,1557157685,-0.06,0.00,0.00,0.00,,1.882108,1557157685,-0.06,0.00,0.00,0.00,,1.88
2109,1557157685,-0.06,0.00,0.00,0.00,,1.88
2110,1557157685,-0.06,0.00,0.00,0.00,,1.88
2111,1557157685,-0.06,0.00,0.00,0.00,,1.88
2112,1557157685,-0.06,0.00,0.00,0.00,,1.882113,1557157685,-0.06,0.00,0.00,0.00,,1.88
2114,1557157685,-0.06,0.00,0.00,0.00,,1.88
2115,1557157685,-0.06,0.00,0.00,0.00,,1.88
2116,1557157685,-0.06,0.00,0.00,0.00,,1.88
2117,1557157685,-0.06,0.00,0.00,0.00,,1.882118,1557157685,-0.06,0.00,0.00,0.00,,1.88
2119,1557157685,-0.06,0.00,0.00,0.00,,1.88
2120,1557157685,-0.06,0.00,0.00,0.00,,1.88
2121,1557157685,-0.06,0.00,0.00,0.00,,1.88
2122,1557157685,-0.06,0.00,0.00,0.00,,1.882123,1557157685,-0.06,0.00,0.00,0.00,,1.88
2124,1557157685,-0.06,0.00,0.00,0.00,,1.88
2125,1557157685,-0.06,0.00,0.00,0.00,,1.88
2126,1557157685,-0.06,0.00,0.00,0.00,,1.88
2127,1557157685,-0.06,0.00,0.00,0.00,,1.882128,1557157685,-0.06,0.00,0.00,0.00,,1.88
2129,1557157686,-0.06,0.00,0.00,0.00,,1.88
2130,1557157686,-0.06,0.00,0.00,0.00,,1.88
2131,1557157686,-0.06,0.00,0.00,0.00,,1.88
2132,1557157686,-0.06,0.00,0.00,0.00,,1.882133,1557157686,-0.06,0.00,0.00,0.00,,1.88
2134,1557157686,-0.06,0.00,0.00,0.00,,1.88
2135,1557157686,-0.06,0.00,0.00,0.00,,1.88
2136,1557157686,-0.06,0.00,0.00,0.00,,1.88
2137,1557157686,-0.06,0.00,0.00,0.00,,1.882138,1557157686,-0.06,0.00,0.00,0.00,,1.88
2139,1557157686,-0.06,0.00,0.00,0.00,,1.88
2140,1557157686,-0.06,0.00,0.00,0.00,,1.88
2141,1557157686,-0.06,0.00,0.00,0.00,,1.88
2142,1557157686,-0.06,0.00,0.00,0.00,,1.882143,1557157686,-0.06,0.00,0.00,0.00,,1.88
2144,1557157686,-0.06,0.00,0.00,0.00,,1.88
2145,1557157686,-0.06,0.00,0.00,0.00,,1.88
2146,1557157686,-0.06,0.00,0.00,0.00,,1.88
2147,1557157686,-0.06,0.00,0.00,0.00,,1.882148,1557157686,-0.06,0.00,0.00,0.00,,1.88
2149,1557157686,-0.06,0.00,0.00,0.00,,1.88
2150,1557157686,-0.06,0.00,0.00,0.00,,1.88
2151,1557157686,-0.06,0.00,0.00,0.00,,1.88
2152,1557157686,-0.06,0.00,0.00,0.00,,1.882153,1557157686,-0.06,0.00,0.00,0.00,,1.88
2154,1557157686,-0.06,0.00,0.00,0.00,,1.88
2155,1557157686,-0.06,0.00,0.00,0.00,,1.88
2156,1557157686,-0.06,0.00,0.00,0.00,,1.88
2157,1557157686,-0.06,0.00,0.00,0.00,,1.882158,1557157687,-0.06,0.00,0.00,0.00,,1.88
2159,1557157687,-0.06,0.00,0.00,0.00,,1.88
2160,1557157687,-0.06,0.00,0.00,0.00,,1.88
2161,1557157687,-0.06,0.00,0.00,0.00,,1.88
2162,1557157687,-0.06,0.00,0.00,0.00,,1.882163,1557157687,-0.06,0.00,0.00,0.00,,1.88
2164,1557157687,-0.06,0.00,0.00,0.00,,1.88
2165,1557157687,-0.06,0.00,0.00,0.00,,1.88
2166,1557157687,-0.06,0.00,0.00,0.00,,1.88
2167,1557157687,-0.06,0.00,0.00,0.00,,1.882168,1557157687,-0.06,0.00,0.00,0.00,,1.88
2169,1557157687,-0.06,0.00,0.00,0.00,,1.88
2170,1557157687,-0.06,0.00,0.00,0.00,,1.88
2171,1557157687,-0.06,0.00,0.00,0.00,,1.88
2172,1557157687,-0.06,0.00,0.00,0.00,,1.882173,1557157687,-0.06,0.00,0.00,0.00,,1.88
2174,1557157687,-0.06,0.00,0.00,0.00,,1.88
2175,1557157687,-0.06,0.00,0.00,0.00,,1.88
2176,1557157687,-0.06,0.00,0.00,0.00,,1.88
2177,1557157687,-0.06,0.00,0.00,0.00,,1.882178,1557157687,-0.06,0.00,0.00,0.00,,1.88
2179,1557157687,-0.06,0.00,0.00,0.00,,1.88
2180,1557157687,-0.06,0.00,0.00,0.00,,1.88
2181,1557157687,-0.06,0.00,0.00,0.00,,1.88
2182,1557157687,-0.06,0.00,0.00,0.00,,1.882183,1557157687,-0.06,0.00,0.00,0.00,,1.88
2184,1557157687,-0.06,0.00,0.00,0.00,,1.88
2185,1557157687,-0.06,0.00,0.00,0.00,,1.88
2186,1557157687,-0.06,0.00,0.00,0.00,,1.88
2187,1557157688,-0.06,0.00,0.00,0.00,,1.882188,1557157688,-0.06,0.00,0.00,0.00,,1.88
2189,1557157688,-0.06,0.00,0.00,0.00,,1.88
2190,1557157688,-0.06,0.00,0.00,0.00,,1.88
2191,1557157688,-0.06,0.00,0.00,0.00,,1.88
2192,1557157688,-0.06,0.00,0.00,0.00,,1.882193,1557157688,-0.06,0.00,0.00,0.00,,1.88
2194,1557157688,-0.06,0.00,0.00,0.00,,1.88
2195,1557157688,-0.06,0.00,0.00,0.00,,1.88
2196,1557157688,-0.06,0.00,0.00,0.00,,1.88
2197,1557157688,-0.06,0.00,0.00,0.00,,1.882198,1557157688,-0.06,0.00,0.00,0.00,,1.88
2199,1557157688,-0.06,0.00,0.00,0.00,,1.88
2200,1557157688,-0.06,0.00,0.00,0.00,,1.88
2201,1557157688,-0.06,0.00,0.00,0.00,,1.88
2202,1557157688,-0.06,0.00,0.00,0.00,,1.882203,1557157688,-0.06,0.00,0.00,0.00,,1.88
2204,1557157688,-0.06,0.00,0.00,0.00,,1.88
2205,1557157688,-0.06,0.00,0.00,0.00,,1.88
2206,1557157688,-0.06,0.00,0.00,0.00,,1.88
2207,1557157688,-0.06,0.00,0.00,0.00,,1.882208,1557157688,-0.06,0.00,0.00,0.00,,1.88
2209,1557157688,-0.06,0.00,0.00,0.00,,1.88
2210,1557157688,-0.06,0.00,0.00,0.00,,1.88
2211,1557157688,-0.06,0.00,0.00,0.00,,1.88
2212,1557157688,-0.06,0.00,0.00,0.00,,1.882213,1557157688,-0.06,0.00,0.00,0.00,,1.88
2214,1557157688,-0.06,0.00,0.00,0.00,,1.88
2215,1557157689,-0.06,0.00,0.00,0.00,,1.88
2216,1557157689,-0.06,0.00,0.00,0.00,,1.88
2217,1557157689,-0.06,0.00,0.00,0.00,,1.882218,1557157689,-0.06,0.00,0.00,0.00,,1.88
2219,1557157689,-0.06,0.00,0.00,0.00,,1.88
2220,1557157689,-0.06,0.00,0.00,0.00,,1.88
2221,1557157689,-0.06,0.00,0.00,0.00,,1.88
2222,1557157689,-0.06,0.00,0.00,0.00,,1.882223,1557157689,-0.06,0.00,0.00,0.00,,1.88
2224,1557157689,-0.06,0.00,0.00,0.00,,1.88
2225,1557157689,-0.06,0.00,0.00,0.00,,1.88
2226,1557157689,-0.06,0.00,0.00,0.00,,1.88
2227,1557157689,-0.06,0.00,0.00,0.00,,1.882228,1557157689,-0.06,0.00,0.00,0.00,,1.88
2229,1557157689,-0.06,0.00,0.00,0.00,,1.88
2230,1557157689,-0.06,0.00,0.00,0.00,,1.88
2231,1557157689,-0.06,0.00,0.00,0.00,,1.88
2232,1557157689,-0.06,0.00,0.00,0.00,,1.882233,1557157689,-0.06,0.00,0.00,0.00,,1.88
2234,1557157689,-0.06,0.00,0.00,0.00,,1.88
2235,1557157689,-0.06,0.00,0.00,0.00,,1.88
2236,1557157689,-0.06,0.00,0.00,0.00,,1.88
2237,1557157689,-0.06,0.00,0.00,0.00,,1.882238,1557157689,-0.06,0.00,0.00,0.00,,1.88
2239,1557157689,-0.06,0.00,0.00,0.00,,1.88
2240,1557157689,-0.06,0.00,0.00,0.00,,1.88
2241,1557157689,-0.06,0.00,0.00,0.00,,1.88
2242,1557157689,-0.06,0.00,0.00,0.00,,1.882243,1557157689,-0.06,0.00,0.00,0.00,,1.88
2244,1557157690,-0.06,0.00,0.00,0.00,,1.88
2245,1557157690,-0.06,0.00,0.00,0.00,,1.88
2246,1557157690,-0.06,0.00,0.00,0.00,,1.88
2247,1557157690,-0.06,0.00,0.00,0.00,,1.882248,1557157690,-0.06,0.00,0.00,0.00,,1.88
2249,1557157690,-0.06,0.00,0.00,0.00,,1.88
2250,1557157690,-0.06,0.00,0.00,0.00,,1.88
2251,1557157690,-0.06,0.00,0.00,0.00,,1.88
2252,1557157690,-0.06,0.00,0.00,0.00,,1.882253,1557157690,-0.06,0.00,0.00,0.00,,1.88
2254,1557157690,-0.06,0.00,0.00,0.00,,1.88
2255,1557157690,-0.06,0.00,0.00,0.00,,1.88
2256,1557157690,-0.06,0.00,0.00,0.00,,1.88
2257,1557157690,-0.06,0.00,0.00,0.00,,1.882258,1557157690,-0.06,0.00,0.00,0.00,,1.88
2259,1557157690,-0.06,0.00,0.00,0.00,,1.88
2260,1557157690,-0.06,0.00,0.00,0.00,,1.88
2261,1557157690,-0.06,0.00,0.00,0.00,,1.88
2262,1557157690,-0.06,0.00,0.00,0.00,,1.882263,1557157690,-0.06,0.00,0.00,0.00,,1.88
2264,1557157690,-0.06,0.00,0.00,0.00,,1.88
2265,1557157690,-0.06,0.00,0.00,0.00,,1.88
2266,1557157690,-0.06,0.00,0.00,0.00,,1.88
2267,1557157690,-0.06,0.00,0.00,0.00,,1.882268,1557157690,-0.06,0.00,0.00,0.00,,1.88
2269,1557157690,-0.06,0.00,0.00,0.00,,1.88
2270,1557157690,-0.06,0.00,0.00,0.00,,1.88
2271,1557157690,-0.06,0.00,0.00,0.00,,1.88
2272,1557157690,-0.06,0.00,0.00,0.00,,1.882273,1557157691,-0.06,0.00,0.00,0.00,,1.88
2274,1557157691,-0.06,0.00,0.00,0.00,,1.88
2275,1557157691,-0.06,0.00,0.00,0.00,,1.88
2276,1557157691,-0.06,0.00,0.00,0.00,,1.88
2277,1557157691,-0.06,0.00,0.00,0.00,,1.882278,1557157691,-0.06,0.00,0.00,0.00,,1.88
2279,1557157691,-0.06,0.00,0.00,0.00,,1.88
2280,1557157691,-0.06,0.00,0.00,0.00,,1.88
2281,1557157691,-0.06,0.00,0.00,0.00,,1.88
2282,1557157691,-0.06,0.00,0.00,0.00,,1.882283,1557157691,-0.06,0.00,0.00,0.00,,1.88
2284,1557157691,-0.06,0.00,0.00,0.00,,1.88
2285,1557157691,-0.06,0.00,0.00,0.00,,1.88
2286,1557157691,-0.06,0.00,0.00,0.00,,1.88
2287,1557157691,-0.06,0.00,0.00,0.00,,1.882288,1557157691,-0.06,0.00,0.00,0.00,,1.88
2289,1557157691,-0.06,0.00,0.00,0.00,,1.88
2290,1557157691,-0.06,0.00,0.00,0.00,,1.88
2291,1557157691,-0.06,0.00,0.00,0.00,,1.88
2292,1557157691,-0.06,0.00,0.00,0.00,,1.882293,1557157691,-0.06,0.00,0.00,0.00,,1.88
2294,1557157691,-0.06,0.00,0.00,0.00,,1.88
2295,1557157691,-0.06,0.00,0.00,0.00,,1.88
2296,1557157691,-0.06,0.00,0.00,0.00,,1.88
2297,1557157691,-0.06,0.00,0.00,0.00,,1.882298,1557157691,-0.06,0.00,0.00,0.00,,1.88
2299,1557157691,-0.06,0.00,0.00,0.00,,1.88
2300,1557157691,-0.06,0.00,0.00,0.00,,1.88
2301,1557157691,-0.06,0.00,0.00,0.00,,1.88
2302,1557157692,-0.06,0.00,0.00,0.00,,1.882303,1557157692,-0.06,0.00,0.00,0.00,,1.88
2304,1557157692,-0.06,0.00,0.00,0.00,,1.88
2305,1557157692,-0.06,0.00,0.00,0.00,,1.88
2306,1557157692,-0.06,0.00,0.00,0.00,,1.88
2307,1557157692,-0.06,0.00,0.00,0.00,,1.882308,1557157692,-0.06,0.00,0.00,0.00,,1.88
2309,1557157692,-0.06,0.00,0.00,0.00,,1.88
2310,1557157692,-0.06,0.00,0.00,0.00,,1.88
2311,1557157692,-0.06,0.00,0.00,0.00,,1.88
2312,1557157692,-0.06,0.00,0.00,0.00,,1.882313,1557157692,-0.06,0.00,0.00,0.00,,1.88
2314,1557157692,-0.06,0.00,0.00,0.00,,1.88
2315,1557157692,-0.06,0.00,0.00,0.00,,1.88
2316,1557157692,-0.06,0.00,0.00,0.00,,1.88
2317,1557157692,-0.06,0.00,0.00,0.00,,1.882318,1557157692,-0.06,0.00,0.00,0.00,,1.88
2319,1557157692,-0.06,0.00,0.00,0.00,,1.88
2320,1557157692,-0.06,0.00,0.00,0.00,,1.88
2321,1557157692,-0.06,0.00,0.00,0.00,,1.88
2322,1557157692,-0.06,0.00,0.00,0.00,,1.882323,1557157692,-0.06,0.00,0.00,0.00,,1.88
2324,1557157692,-0.06,0.00,0.00,0.00,,1.88
2325,1557157692,-0.06,0.00,0.00,0.00,,1.88
2326,1557157692,-0.06,0.00,0.00,0.00,,1.88
2327,1557157692,-0.06,0.00,0.00,0.00,,1.882328,1557157692,-0.06,0.00,0.00,0.00,,1.88
2329,1557157692,-0.06,0.00,0.00,0.00,,1.88
2330,1557157693,-0.06,0.00,0.00,0.00,,1.88
2331,1557157693,-0.06,0.00,0.00,0.00,,1.88
2332,1557157693,-0.06,0.00,0.00,0.00,,1.882333,1557157693,-0.06,0.00,0.00,0.00,,1.88
2334,1557157693,-0.06,0.00,0.00,0.00,,1.88
2335,1557157693,-0.06,0.00,0.00,0.00,,1.88
2336,1557157693,-0.06,0.00,0.00,0.00,,1.88
2337,1557157693,-0.06,0.00,0.00,0.00,,1.882338,1557157693,-0.06,0.00,0.00,0.00,,1.88
2339,1557157693,-0.06,0.00,0.00,0.00,,1.88
2340,1557157693,-0.06,0.00,0.00,0.00,,1.88
2341,1557157693,-0.06,0.00,0.00,0.00,,1.88
2342,1557157693,-0.06,0.00,0.00,0.00,,1.882343,1557157693,-0.06,0.00,0.00,0.00,,1.88
2344,1557157693,-0.06,0.00,0.00,0.00,,1.88
2345,1557157693,-0.06,0.00,0.00,0.00,,1.88
2346,1557157693,-0.06,0.00,0.00,0.00,,1.88
2347,1557157693,-0.06,0.00,0.00,0.00,,1.882348,1557157693,-0.06,0.00,0.00,0.00,,1.88
2349,1557157693,-0.06,0.00,0.00,0.00,,1.88
2350,1557157693,-0.06,0.00,0.00,0.00,,1.88
2351,1557157693,-0.06,0.00,0.00,0.00,,1.88
2352,1557157693,-0.06,0.00,0.00,0.00,,1.882353,1557157693,-0.06,0.00,0.00,0.00,,1.88
2354,1557157693,-0.06,0.00,0.00,0.00,,1.88
2355,1557157693,-0.06,0.00,0.00,0.00,,1.88
2356,1557157693,-0.06,0.00,0.00,0.00,,1.88
2357,1557157693,-0.06,0.00,0.00,0.00,,1.882358,1557157693,-0.06,0.00,0.00,0.00,,1.88
2359,1557157694,-0.06,0.00,0.00,0.00,,1.88
2360,1557157694,-0.06,0.00,0.00,0.00,,1.88
2361,1557157694,-0.06,0.00,0.00,0.00,,1.88
2362,1557157694,-0.06,0.00,0.00,0.00,,1.882363,1557157694,-0.06,0.00,0.00,0.00,,1.88
2364,1557157694,-0.06,0.00,0.00,0.00,,1.88
2365,1557157694,-0.06,0.00,0.00,0.00,,1.88
2366,1557157694,-0.06,0.00,0.00,0.00,,1.88
2367,1557157694,-0.06,0.00,0.00,0.00,,1.882368,1557157694,-0.06,0.00,0.00,0.00,,1.88
2369,1557157694,-0.06,0.00,0.00,0.00,,1.88
2370,1557157694,-0.06,0.00,0.00,0.00,,1.88
2371,1557157694,-0.06,0.00,0.00,0.00,,1.88
2372,1557157694,-0.06,0.00,0.00,0.00,,1.882373,1557157694,-0.06,0.00,0.00,0.00,,1.88
2374,1557157694,-0.06,0.00,0.00,0.00,,1.88
2375,1557157694,-0.06,0.00,0.00,0.00,,1.88
2376,1557157694,-0.06,0.00,0.00,0.00,,1.88
2377,1557157694,-0.06,0.00,0.00,0.00,,1.882378,1557157694,-0.06,0.00,0.00,0.00,,1.88
2379,1557157694,-0.06,0.00,0.00,0.00,,1.88
2380,1557157694,-0.06,0.00,0.00,0.00,,1.88
2381,1557157694,-0.06,0.00,0.00,0.00,,1.88
2382,1557157694,-0.06,0.00,0.00,0.00,,1.882383,1557157694,-0.06,0.00,0.00,0.00,,1.88
2384,1557157694,-0.06,0.00,0.00,0.00,,1.88
2385,1557157694,-0.06,0.00,0.00,0.00,,1.88
2386,1557157694,-0.06,0.00,0.00,0.00,,1.88
2387,1557157694,-0.06,0.00,0.00,0.00,,1.882388,1557157695,-0.06,0.00,0.00,0.00,,1.88
2389,1557157695,-0.06,0.00,0.00,0.00,,1.88
2390,1557157695,-0.06,0.00,0.00,0.00,,1.88
2391,1557157695,-0.06,0.00,0.00,0.00,,1.88
2392,1557157695,-0.06,0.00,0.00,0.00,,1.882393,1557157695,-0.06,0.00,0.00,0.00,,1.88
2394,1557157695,-0.06,0.00,0.00,0.00,,1.88
2395,1557157695,-0.06,0.00,0.00,0.00,,1.88
2396,1557157695,-0.06,0.00,0.00,0.00,,1.88
2397,1557157695,-0.06,0.00,0.00,0.00,,1.882398,1557157695,-0.06,0.00,0.00,0.00,,1.88
2399,1557157695,-0.06,0.00,0.00,0.00,,1.88
2400,1557157695,-0.06,0.00,0.00,0.00,,1.88
2401,1557157695,-0.06,0.00,0.00,0.00,,1.88
2402,1557157695,-0.06,0.00,0.00,0.00,,1.882403,1557157695,-0.06,0.00,0.00,0.00,,1.88
2404,1557157695,-0.06,0.00,0.00,0.00,,1.88
2405,1557157695,-0.06,0.00,0.00,0.00,,1.88
2406,1557157695,-0.06,0.00,0.00,0.00,,1.88
2407,1557157695,-0.06,0.00,0.00,0.00,,1.882408,1557157695,-0.06,0.00,0.00,0.00,,1.88
2409,1557157695,-0.06,0.00,0.00,0.00,,1.88
2410,1557157695,-0.06,0.00,0.00,0.00,,1.88
2411,1557157695,-0.06,0.00,0.00,0.00,,1.88
2412,1557157695,-0.06,0.00,0.00,0.00,,1.882413,1557157695,-0.06,0.00,0.00,0.00,,1.88
2414,1557157695,-0.06,0.00,0.00,0.00,,1.88
2415,1557157695,-0.06,0.00,0.00,0.00,,1.88
2416,1557157696,-0.06,0.00,0.00,0.00,,1.88
2417,1557157696,-0.06,0.00,0.00,0.00,,1.882418,1557157696,-0.06,0.00,0.00,0.00,,1.88
2419,1557157696,-0.06,0.00,0.00,0.00,,1.88
2420,1557157696,-0.06,0.00,0.00,0.00,,1.88
2421,1557157696,-0.06,0.00,0.00,0.00,,1.88
2422,1557157696,-0.06,0.00,0.00,0.00,,1.882423,1557157696,-0.06,0.00,0.00,0.00,,1.88
2424,1557157696,-0.06,0.00,0.00,0.00,,1.88
2425,1557157696,-0.06,0.00,0.00,0.00,,1.88
2426,1557157696,-0.06,0.00,0.00,0.00,,1.88
2427,1557157696,-0.06,0.00,0.00,0.00,,1.882428,1557157696,-0.06,0.00,0.00,0.00,,1.88
2429,1557157696,-0.06,0.00,0.00,0.00,,1.88
2430,1557157696,-0.06,0.00,0.00,0.00,,1.88
2431,1557157696,-0.06,0.00,0.00,0.00,,1.88
2432,1557157696,-0.06,0.00,0.00,0.00,,1.882433,1557157696,-0.06,0.00,0.00,0.00,,1.88
2434,1557157696,-0.06,0.00,0.00,0.00,,1.88
2435,1557157696,-0.06,0.00,0.00,0.00,,1.88
2436,1557157696,-0.06,0.00,0.00,0.00,,1.88
2437,1557157696,-0.06,0.00,0.00,0.00,,1.882438,1557157696,-0.06,0.00,0.00,0.00,,1.88
2439,1557157696,-0.06,0.00,0.00,0.00,,1.88
2440,1557157696,-0.06,0.00,0.00,0.00,,1.88
2441,1557157696,-0.06,0.00,0.00,0.00,,1.88
2442,1557157696,-0.06,0.00,0.00,0.00,,1.882443,1557157696,-0.06,0.00,0.00,0.00,,1.88
2444,1557157696,-0.06,0.00,0.00,0.00,,1.88
2445,1557157697,-0.06,0.00,0.00,0.00,,1.88
2446,1557157697,-0.06,0.00,0.00,0.00,,1.88
2447,1557157697,-0.06,0.00,0.00,0.00,,1.882448,1557157697,-0.06,0.00,0.00,0.00,,1.88
2449,1557157697,-0.06,0.00,0.00,0.00,,1.88
2450,1557157697,-0.06,0.00,0.00,0.00,,1.88
2451,1557157697,-0.06,0.00,0.00,0.00,,1.88
2452,1557157697,-0.06,0.00,0.00,0.00,,1.882453,1557157697,-0.06,0.00,0.00,0.00,,1.88
2454,1557157697,-0.06,0.00,0.00,0.00,,1.88
2455,1557157697,-0.06,0.00,0.00,0.00,,1.88
2456,1557157697,-0.06,0.00,0.00,0.00,,1.88
2457,1557157697,-0.06,0.00,0.00,0.00,,1.882458,1557157697,-0.06,0.00,0.00,0.00,,1.88
2459,1557157697,-0.06,0.00,0.00,0.00,,1.88
2460,1557157697,-0.06,0.00,0.00,0.00,,1.88
2461,1557157697,-0.06,0.00,0.00,0.00,,1.88
2462,1557157697,-0.06,0.00,0.00,0.00,,1.882463,1557157697,-0.06,0.00,0.00,0.00,,1.88
2464,1557157697,-0.06,0.00,0.00,0.00,,1.88
2465,1557157697,-0.06,0.00,0.00,0.00,,1.88
2466,1557157697,-0.06,0.00,0.00,0.00,,1.88
2467,1557157697,-0.06,0.00,0.00,0.00,,1.882468,1557157697,-0.06,0.00,0.00,0.00,,1.88
2469,1557157697,-0.06,0.00,0.00,0.00,,1.88
2470,1557157697,-0.06,0.00,0.00,0.00,,1.88
2471,1557157697,-0.06,0.00,0.00,0.00,,1.88
2472,1557157697,-0.06,0.00,0.00,0.00,,1.882473,1557157697,-0.06,0.00,0.00,0.00,,1.88
2474,1557157698,-0.06,0.00,0.00,0.00,,1.88
2475,1557157698,-0.06,0.00,0.00,0.00,,1.88
2476,1557157698,-0.06,0.00,0.00,0.00,,1.88
2477,1557157698,-0.06,0.00,0.00,0.00,,1.882478,1557157698,-0.06,0.00,0.00,0.00,,1.88
2479,1557157698,-0.06,0.00,0.00,0.00,,1.88
2480,1557157698,-0.06,0.00,0.00,0.00,,1.88
2481,1557157698,-0.06,0.00,0.00,0.00,,1.88
2482,1557157698,-0.06,0.00,0.00,0.00,,1.882483,1557157698,-0.06,0.00,0.00,0.00,,1.88
2484,1557157698,-0.06,0.00,0.00,0.00,,1.88
2485,1557157698,-0.06,0.00,0.00,0.00,,1.88
2486,1557157698,-0.06,0.00,0.00,0.00,,1.88
2487,1557157698,-0.06,0.00,0.00,0.00,,1.882488,1557157698,-0.06,0.00,0.00,0.00,,1.88
2489,1557157698,-0.06,0.00,0.00,0.00,,1.88
2490,1557157698,-0.06,0.00,0.00,0.00,,1.88
2491,1557157698,-0.06,0.00,0.00,0.00,,1.88
2492,1557157698,-0.06,0.00,0.00,0.00,,1.882493,1557157698,-0.06,0.00,0.00,0.00,,1.88
2494,1557157698,-0.06,0.00,0.00,0.00,,1.88
2495,1557157698,-0.06,0.00,0.00,0.00,,1.88
2496,1557157698,-0.06,0.00,0.00,0.00,,1.88
2497,1557157698,-0.06,0.00,0.00,0.00,,1.882498,1557157698,-0.06,0.00,0.00,0.00,,1.88
2499,1557157698,-0.06,0.00,0.00,0.00,,1.88
2500,1557157698,-0.06,0.00,0.00,0.00,,1.88
2501,1557157698,-0.06,0.00,0.00,0.00,,1.88
2502,1557157698,-0.06,0.00,0.00,0.00,,1.882503,1557157699,-0.06,0.00,0.00,0.00,,1.88
2504,1557157699,-0.06,0.00,0.00,0.00,,1.88
2505,1557157699,-0.06,0.00,0.00,0.00,,1.88
2506,1557157699,-0.06,0.00,0.00,0.00,,1.88
2507,1557157699,-0.06,0.00,0.00,0.00,,1.882508,1557157699,-0.06,0.00,0.00,0.00,,1.88
2509,1557157699,-0.06,0.00,0.00,0.00,,1.88
2510,1557157699,-0.06,0.00,0.00,0.00,,1.88
2511,1557157699,-0.06,0.00,0.00,0.00,,1.88
2512,1557157699,-0.06,0.00,0.00,0.00,,1.882513,1557157699,-0.06,0.00,0.00,0.00,,1.88
2514,1557157699,-0.06,0.00,0.00,0.00,,1.88
2515,1557157699,-0.06,0.00,0.00,0.00,,1.88
2516,1557157699,-0.06,0.00,0.00,0.00,,1.88
2517,1557157699,-0.06,0.00,0.00,0.00,,1.882518,1557157699,-0.06,0.00,0.00,0.00,,1.88
2519,1557157699,-0.06,0.00,0.00,0.00,,1.88
2520,1557157699,-0.06,0.00,0.00,0.00,,1.88
2521,1557157699,-0.06,0.00,0.00,0.00,,1.88
2522,1557157699,-0.06,0.00,0.00,0.00,,1.882523,1557157699,-0.06,0.00,0.00,0.00,,1.88
2524,1557157699,-0.06,0.00,0.00,0.00,,1.88
2525,1557157699,-0.06,0.00,0.00,0.00,,1.88
2526,1557157699,-0.06,0.00,0.00,0.00,,1.88
2527,1557157699,-0.06,0.00,0.00,0.00,,1.882528,1557157699,-0.06,0.00,0.00,0.00,,1.88
2529,1557157699,-0.06,0.00,0.00,0.00,,1.88
2530,1557157699,-0.06,0.00,0.00,0.00,,1.88
2531,1557157700,-0.06,0.00,0.00,0.00,,1.88
2532,1557157700,-0.06,0.00,0.00,0.00,,1.882533,1557157700,-0.06,0.00,0.00,0.00,,1.88
2534,1557157700,-0.06,0.00,0.00,0.00,,1.88
2535,1557157700,-0.06,0.00,0.00,0.00,,1.88
2536,1557157700,-0.06,0.00,0.00,0.00,,1.88
2537,1557157700,-0.06,0.00,0.00,0.00,,1.882538,1557157700,-0.06,0.00,0.00,0.00,,1.88
2539,1557157700,-0.06,0.00,0.00,0.00,,1.88
2540,1557157700,-0.06,0.00,0.00,0.00,,1.88
2541,1557157700,-0.06,0.00,0.00,0.00,,1.88
2542,1557157700,-0.06,0.00,0.00,0.00,,1.882543,1557157700,-0.06,0.00,0.00,0.00,,1.88
2544,1557157700,-0.06,0.00,0.00,0.00,,1.88
2545,1557157700,-0.06,0.00,0.00,0.00,,1.88
2546,1557157700,-0.06,0.00,0.00,0.00,,1.88
2547,1557157700,-0.06,0.00,0.00,0.00,,1.882548,1557157700,-0.06,0.00,0.00,0.00,,1.88
2549,1557157700,-0.06,0.00,0.00,0.00,,1.88
2550,1557157700,-0.06,0.00,0.00,0.00,,1.88
2551,1557157700,-0.06,0.00,0.00,0.00,,1.88
2552,1557157700,-0.06,0.00,0.00,0.00,,1.882553,1557157700,-0.06,0.00,0.00,0.00,,1.88
2554,1557157700,-0.06,0.00,0.00,0.00,,1.88
2555,1557157700,-0.06,0.00,0.00,0.00,,1.88
2556,1557157701,-0.06,0.00,0.00,0.00,,1.88
2557,1557157701,-0.06,0.00,0.00,0.00,,1.882558,1557157701,-0.06,0.00,0.00,0.00,,1.88
2559,1557157701,-0.06,0.00,0.00,0.00,,1.88
2560,1557157701,-0.06,0.00,0.00,0.00,,1.88
2561,1557157701,-0.06,0.00,0.00,0.00,,1.88
2562,1557157701,-0.06,0.00,0.00,0.00,,1.882563,1557157701,-0.06,0.00,0.00,0.00,,1.88
2564,1557157701,-0.06,0.00,0.00,0.00,,1.88
2565,1557157701,-0.06,0.00,0.00,0.00,,1.88
2566,1557157701,-0.06,0.00,0.00,0.00,,1.88
2567,1557157701,-0.06,0.00,0.00,0.00,,1.882568,1557157701,-0.06,0.00,0.00,0.00,,1.88
2569,1557157701,-0.06,0.00,0.00,0.00,,1.88
2570,1557157701,-0.06,0.00,0.00,0.00,,1.88
2571,1557157701,-0.06,0.00,0.00,0.00,,1.88
2572,1557157701,-0.06,0.00,0.00,0.00,,1.882573,1557157701,-0.06,0.00,0.00,0.00,,1.88
2574,1557157701,-0.06,0.00,0.00,0.00,,1.88
2575,1557157701,-0.06,0.00,0.00,0.00,,1.88
2576,1557157701,-0.06,0.00,0.00,0.00,,1.88
2577,1557157701,-0.06,0.00,0.00,0.00,,1.882578,1557157701,-0.06,0.00,0.00,0.00,,1.88
2579,1557157701,-0.06,0.00,0.00,0.00,,1.88
2580,1557157701,-0.06,0.00,0.00,0.00,,1.88
2581,1557157701,-0.06,0.00,0.00,0.00,,1.88
2582,1557157701,-0.06,0.00,0.00,0.00,,1.882583,1557157701,-0.06,0.00,0.00,0.00,,1.88
2584,1557157701,-0.06,0.00,0.00,0.00,,1.88
2585,1557157702,-0.06,0.00,0.00,0.00,,1.88
2586,1557157702,-0.06,0.00,0.00,0.00,,1.88
2587,1557157702,-0.06,0.00,0.00,0.00,,1.882588,1557157702,-0.06,0.00,0.00,0.00,,1.88
2589,1557157702,-0.06,0.00,0.00,0.00,,1.88
2590,1557157702,-0.06,0.00,0.00,0.00,,1.88
2591,1557157702,-0.06,0.00,0.00,0.00,,1.88
2592,1557157702,-0.06,0.00,0.00,0.00,,1.882593,1557157702,-0.06,0.00,0.00,0.00,,1.88
2594,1557157702,-0.06,0.00,0.00,0.00,,1.88
2595,1557157702,-0.06,0.00,0.00,0.00,,1.88
2596,1557157702,-0.06,0.00,0.00,0.00,,1.88
2597,1557157702,-0.06,0.00,0.00,0.00,,1.882598,1557157702,-0.06,0.00,0.00,0.00,,1.88
2599,1557157702,-0.06,0.00,0.00,0.00,,1.88
2600,1557157702,-0.06,0.00,0.00,0.00,,1.88
2601,1557157702,-0.06,0.00,0.00,0.00,,1.88
2602,1557157702,-0.06,0.00,0.00,0.00,,1.882603,1557157702,-0.06,0.00,0.00,0.00,,1.88
2604,1557157702,-0.06,0.00,0.00,0.00,,1.88
2605,1557157702,-0.06,0.00,0.00,0.00,,1.88
2606,1557157702,-0.06,0.00,0.00,0.00,,1.88
2607,1557157702,-0.06,0.00,0.00,0.00,,1.882608,1557157702,-0.06,0.00,0.00,0.00,,1.88
2609,1557157702,-0.06,0.00,0.00,0.00,,1.88
2610,1557157702,-0.06,0.00,0.00,0.00,,1.88
2611,1557157702,-0.06,0.00,0.00,0.00,,1.88
2612,1557157702,-0.06,0.00,0.00,0.00,,1.882613,1557157702,-0.06,0.00,0.00,0.00,,1.88
2614,1557157703,-0.06,0.00,0.00,0.00,,1.88
2615,1557157703,-0.06,0.00,0.00,0.00,,1.88
2616,1557157703,-0.06,0.00,0.00,0.00,,1.88
2617,1557157703,-0.06,0.00,0.00,0.00,,1.882618,1557157703,-0.06,0.00,0.00,0.00,,1.88
2619,1557157703,-0.06,0.00,0.00,0.00,,1.88
2620,1557157703,-0.06,0.00,0.00,0.00,,1.88
2621,1557157703,-0.06,0.00,0.00,0.00,,1.88
2622,1557157703,-0.06,0.00,0.00,0.00,,1.882623,1557157703,-0.06,0.00,0.00,0.00,,1.88
2624,1557157703,-0.06,0.00,0.00,0.00,,1.88
2625,1557157703,-0.06,0.00,0.00,0.00,,1.88
2626,1557157703,-0.06,0.00,0.00,0.00,,1.88
2627,1557157703,-0.06,0.00,0.00,0.00,,1.882628,1557157703,-0.06,0.00,0.00,0.00,,1.88
2629,1557157703,-0.06,0.00,0.00,0.00,,1.88
2630,1557157703,-0.06,0.00,0.00,0.00,,1.88
2631,1557157703,-0.06,0.00,0.00,0.00,,1.88
2632,1557157703,-0.06,0.00,0.00,0.00,,1.882633,1557157703,-0.06,0.00,0.00,0.00,,1.88
2634,1557157703,-0.06,0.00,0.00,0.00,,1.88
2635,1557157703,-0.06,0.00,0.00,0.00,,1.88
2636,1557157703,-0.06,0.00,0.00,0.00,,1.88
2637,1557157703,-0.06,0.00,0.00,0.00,,1.882638,1557157703,-0.06,0.00,0.00,0.00,,1.88
2639,1557157703,-0.06,0.00,0.00,0.00,,1.88
2640,1557157703,-0.06,0.00,0.00,0.00,,1.88
2641,1557157703,-0.06,0.00,0.00,0.00,,1.88
2642,1557157703,-0.06,0.00,0.00,0.00,,1.882643,1557157704,-0.06,0.00,0.00,0.00,,1.88
2644,1557157704,-0.06,0.00,0.00,0.00,,1.88
2645,1557157704,-0.06,0.00,0.00,0.00,,1.88
2646,1557157704,-0.06,0.00,0.00,0.00,,1.88
2647,1557157704,-0.06,0.00,0.00,0.00,,1.882648,1557157704,-0.06,0.00,0.00,0.00,,1.88
2649,1557157704,-0.06,0.00,0.00,0.00,,1.88
2650,1557157704,-0.06,0.00,0.00,0.00,,1.88
2651,1557157704,-0.06,0.00,0.00,0.00,,1.88
2652,1557157704,-0.06,0.00,0.00,0.00,,1.882653,1557157704,-0.06,0.00,0.00,0.00,,1.88
2654,1557157704,-0.06,0.00,0.00,0.00,,1.88
2655,1557157704,-0.06,0.00,0.00,0.00,,1.88
2656,1557157704,-0.06,0.00,0.00,0.00,,1.88
2657,1557157704,-0.06,0.00,0.00,0.00,,1.882658,1557157704,-0.06,0.00,0.00,0.00,,1.88
2659,1557157704,-0.06,0.00,0.00,0.00,,1.88
2660,1557157704,-0.06,0.00,0.00,0.00,,1.88
2661,1557157704,-0.06,0.00,0.00,0.00,,1.88
2662,1557157704,-0.06,0.00,0.00,0.00,,1.882663,1557157704,-0.06,0.00,0.00,0.00,,1.88
2664,1557157704,-0.06,0.00,0.00,0.00,,1.88
2665,1557157704,-0.06,0.00,0.00,0.00,,1.88
2666,1557157704,-0.06,0.00,0.00,0.00,,1.88
2667,1557157704,-0.06,0.00,0.00,0.00,,1.882668,1557157704,-0.06,0.00,0.00,0.00,,1.88
2669,1557157704,-0.06,0.00,0.00,0.00,,1.88
2670,1557157704,-0.06,0.00,0.00,0.00,,1.88
2671,1557157704,-0.06,0.00,0.00,0.00,,1.88
2672,1557157705,-0.06,0.00,0.00,0.00,,1.882673,1557157705,-0.06,0.00,0.00,0.00,,1.88
2674,1557157705,-0.06,0.00,0.00,0.00,,1.88
2675,1557157705,-0.06,0.00,0.00,0.00,,1.88
2676,1557157705,-0.06,0.00,0.00,0.00,,1.88
2677,1557157705,-0.06,0.00,0.00,0.00,,1.882678,1557157705,-0.06,0.00,0.00,0.00,,1.88
2679,1557157705,-0.06,0.00,0.00,0.00,,1.88
2680,1557157705,-0.06,0.00,0.00,0.00,,1.88
2681,1557157705,-0.06,0.00,0.00,0.00,,1.88
2682,1557157705,-0.06,0.00,0.00,0.00,,1.882683,1557157705,-0.06,0.00,0.00,0.00,,1.88
2684,1557157705,-0.06,0.00,0.00,0.00,,1.88
2685,1557157705,-0.06,0.00,0.00,0.00,,1.88
2686,1557157705,-0.06,0.00,0.00,0.00,,1.88
2687,1557157705,-0.06,0.00,0.00,0.00,,1.882688,1557157705,-0.06,0.00,0.00,0.00,,1.88
2689,1557157705,-0.06,0.00,0.00,0.00,,1.88
2690,1557157705,-0.06,0.00,0.00,0.00,,1.88
2691,1557157705,-0.06,0.00,0.00,0.00,,1.88
